" File: Users\LabUser\Documents\MonochromatorCal
"  SCOPE->  Wave:693.48nm  Pix:1050  Val:850.600  Time:100ms  Avg:1  Sm:1  Sg:0  Tc:off  SNAP  Xt:3  Ch:1  Xtrig  
 191.00  8.4354E+002
 191.50  8.4588E+002
 192.00  8.3003E+002
 192.50  8.1139E+002
 193.00  8.2726E+002
 193.50  8.6818E+002
 194.00  8.6999E+002
 194.50  8.5311E+002
 195.00  8.5254E+002
 195.50  8.5700E+002
 196.00  8.4362E+002
 196.50  8.1141E+002
 197.00  7.8403E+002
 197.50  7.8236E+002
 198.00  7.9136E+002
 198.50  8.0231E+002
 199.00  8.1021E+002
 199.50  7.9900E+002
 200.00  8.1022E+002
 200.50  8.2231E+002
 201.00  8.3044E+002
 201.50  8.4163E+002
 202.00  8.3297E+002
 202.50  8.2879E+002
 203.00  8.3122E+002
 203.50  8.3356E+002
 204.00  8.3648E+002
 204.50  8.3859E+002
 205.00  8.3738E+002
 205.50  8.3503E+002
 206.00  8.3360E+002
 206.50  8.3239E+002
 207.00  8.3045E+002
 207.50  8.2689E+002
 208.00  8.2168E+002
 208.50  8.1677E+002
 209.00  8.1647E+002
 209.50  8.2039E+002
 210.00  8.2953E+002
 210.50  8.3799E+002
 211.00  8.4230E+002
 211.50  8.4590E+002
 212.00  8.4927E+002
 212.50  8.4804E+002
 213.00  8.4318E+002
 213.50  8.4109E+002
 214.00  8.4182E+002
 214.50  8.4140E+002
 215.00  8.4483E+002
 215.50  8.5198E+002
 216.00  8.5575E+002
 216.50  8.5214E+002
 217.00  8.4702E+002
 217.50  8.4190E+002
 218.00  8.3416E+002
 218.50  8.2871E+002
 219.00  8.2813E+002
 219.50  8.2890E+002
 220.00  8.2965E+002
 220.50  8.3178E+002
 221.00  8.3387E+002
 221.50  8.3284E+002
 222.00  8.2977E+002
 222.50  8.2886E+002
 223.00  8.2797E+002
 223.50  8.2616E+002
 224.00  8.2562E+002
 224.50  8.3260E+002
 225.00  8.3602E+002
 225.50  8.3573E+002
 226.00  8.3436E+002
 226.50  8.3242E+002
 227.00  8.2994E+002
 227.50  8.2681E+002
 228.00  8.2330E+002
 228.50  8.1981E+002
 229.00  8.1438E+002
 229.50  8.0609E+002
 230.00  7.9835E+002
 230.50  7.9449E+002
 231.00  7.9531E+002
 231.50  8.0007E+002
 232.00  8.0442E+002
 232.50  8.0424E+002
 233.00  7.9836E+002
 233.50  7.8871E+002
 234.00  7.7905E+002
 234.50  7.7463E+002
 235.00  7.7700E+002
 235.50  7.8472E+002
 236.00  7.9499E+002
 236.50  8.0504E+002
 237.00  8.1458E+002
 237.50  8.2080E+002
 238.00  8.2279E+002
 238.50  8.2300E+002
 239.00  8.2492E+002
 239.50  8.3112E+002
 240.00  8.3884E+002
 240.50  8.4344E+002
 241.00  8.4711E+002
 241.50  8.5407E+002
 242.00  8.5605E+002
 242.50  8.5384E+002
 243.00  8.5726E+002
 243.50  8.6249E+002
 244.00  8.6162E+002
 244.50  8.6140E+002
 245.00  8.6094E+002
 245.50  8.5881E+002
 246.00  8.5509E+002
 246.50  8.5201E+002
 247.00  8.4999E+002
 247.50  8.5115E+002
 248.00  8.5616E+002
 248.50  8.5997E+002
 249.00  8.6211E+002
 249.50  8.6865E+002
 250.00  8.7663E+002
 250.50  8.7922E+002
 251.00  8.7839E+002
 251.50  8.7633E+002
 252.00  8.6763E+002
 252.50  8.5121E+002
 253.00  8.3386E+002
 253.50  8.1990E+002
 254.00  8.1579E+002
 254.50  8.1371E+002
 255.00  8.1244E+002
 255.50  8.1325E+002
 256.00  8.1671E+002
 256.50  8.1760E+002
 257.00  8.1445E+002
 257.50  8.1260E+002
 258.00  8.1669E+002
 258.50  8.2299E+002
 259.00  8.2754E+002
 259.50  8.3167E+002
 260.00  8.3453E+002
 260.50  8.3296E+002
 261.00  8.2755E+002
 261.50  8.2096E+002
 262.00  8.1907E+002
 262.50  8.2208E+002
 263.00  8.2680E+002
 263.50  8.2669E+002
 264.00  8.2401E+002
 264.50  8.2267E+002
 265.00  8.2187E+002
 265.50  8.2405E+002
 266.00  8.3099E+002
 266.50  8.4053E+002
 267.00  8.4487E+002
 267.50  8.4267E+002
 268.00  8.3812E+002
 268.50  8.3333E+002
 269.00  8.2785E+002
 269.50  8.2648E+002
 270.00  8.3153E+002
 270.50  8.3722E+002
 271.00  8.3961E+002
 271.50  8.3983E+002
 272.00  8.3552E+002
 272.50  8.2558E+002
 273.00  8.1786E+002
 273.50  8.1076E+002
 274.00  8.0275E+002
 274.50  7.9854E+002
 275.00  8.0583E+002
 275.50  8.1684E+002
 276.00  8.2881E+002
 276.50  8.4419E+002
 277.00  8.6126E+002
 277.50  8.7173E+002
 278.00  8.7658E+002
 278.50  8.7605E+002
 279.00  8.6734E+002
 279.50  8.5679E+002
 280.00  8.4734E+002
 280.50  8.4151E+002
 281.00  8.4241E+002
 281.50  8.4655E+002
 282.00  8.5165E+002
 282.50  8.5902E+002
 283.00  8.6418E+002
 283.50  8.6220E+002
 284.00  8.6080E+002
 284.50  8.6672E+002
 285.00  8.7187E+002
 285.50  8.7157E+002
 286.00  8.7060E+002
 286.50  8.7060E+002
 287.00  8.6795E+002
 287.50  8.5509E+002
 288.00  8.4091E+002
 288.50  8.2707E+002
 289.00  8.1043E+002
 289.50  7.9384E+002
 290.00  7.8921E+002
 290.50  7.8959E+002
 291.00  7.9333E+002
 291.50  8.0474E+002
 292.00  8.1466E+002
 292.50  8.1850E+002
 293.00  8.2348E+002
 293.50  8.3243E+002
 294.00  8.4098E+002
 294.50  8.4306E+002
 295.00  8.4233E+002
 295.50  8.4315E+002
 296.00  8.4100E+002
 296.50  8.3539E+002
 297.00  8.3336E+002
 297.50  8.3410E+002
 298.00  8.3178E+002
 298.50  8.2684E+002
 299.00  8.2299E+002
 299.50  8.2309E+002
 300.00  8.3163E+002
 300.50  8.5131E+002
 301.00  8.7443E+002
 301.50  8.8838E+002
 302.00  8.8968E+002
 302.50  8.8212E+002
 303.00  8.6520E+002
 303.50  8.4595E+002
 304.00  8.4171E+002
 304.50  8.4308E+002
 305.00  8.3637E+002
 305.50  8.3328E+002
 306.00  8.3045E+002
 306.50  8.2151E+002
 307.00  8.2121E+002
 307.50  8.3054E+002
 308.00  8.3882E+002
 308.50  8.4910E+002
 309.00  8.5654E+002
 309.50  8.5991E+002
 310.00  8.6392E+002
 310.50  8.6697E+002
 311.00  8.6655E+002
 311.50  8.6765E+002
 312.00  8.6904E+002
 312.50  8.7074E+002
 313.00  8.7037E+002
 313.50  8.6520E+002
 314.00  8.5214E+002
 314.50  8.3639E+002
 315.00  8.2520E+002
 315.50  8.2035E+002
 316.00  8.1790E+002
 316.50  8.1868E+002
 317.00  8.2310E+002
 317.50  8.2608E+002
 318.00  8.2732E+002
 318.50  8.2788E+002
 319.00  8.2728E+002
 319.50  8.2338E+002
 320.00  8.1249E+002
 320.50  7.9592E+002
 321.00  7.8482E+002
 321.50  7.8091E+002
 322.00  7.7907E+002
 322.50  7.8155E+002
 323.00  7.8855E+002
 323.50  7.9328E+002
 324.00  7.9619E+002
 324.50  7.9951E+002
 325.00  8.0689E+002
 325.50  8.1368E+002
 326.00  8.1987E+002
 326.50  8.2777E+002
 327.00  8.3200E+002
 327.50  8.3180E+002
 328.00  8.3082E+002
 328.50  8.3138E+002
 329.00  8.3140E+002
 329.50  8.3435E+002
 330.00  8.3893E+002
 330.50  8.3657E+002
 331.00  8.2754E+002
 331.50  8.1637E+002
 332.00  8.0514E+002
 332.50  7.9329E+002
 333.00  7.9005E+002
 333.50  7.9555E+002
 334.00  8.0480E+002
 334.50  8.1582E+002
 335.00  8.2591E+002
 335.50  8.2945E+002
 336.00  8.3243E+002
 336.50  8.3956E+002
 337.00  8.4544E+002
 337.50  8.4932E+002
 338.00  8.5727E+002
 338.50  8.6439E+002
 339.00  8.6472E+002
 339.50  8.6278E+002
 340.00  8.6243E+002
 340.50  8.6182E+002
 341.00  8.6357E+002
 341.50  8.6749E+002
 342.00  8.6828E+002
 342.50  8.6611E+002
 343.00  8.6732E+002
 343.50  8.7207E+002
 344.00  8.7577E+002
 344.50  8.7767E+002
 345.00  8.7679E+002
 345.50  8.7152E+002
 346.00  8.5869E+002
 346.50  8.3930E+002
 347.00  8.2207E+002
 347.50  8.1278E+002
 348.00  8.0957E+002
 348.50  8.1101E+002
 349.00  8.1821E+002
 349.50  8.2685E+002
 350.00  8.3184E+002
 350.50  8.2855E+002
 351.00  8.2228E+002
 351.50  8.1618E+002
 352.00  8.0837E+002
 352.50  8.0541E+002
 353.00  8.1116E+002
 353.50  8.1664E+002
 354.00  8.1861E+002
 354.50  8.2264E+002
 355.00  8.2194E+002
 355.50  8.1806E+002
 356.00  8.1536E+002
 356.50  8.1592E+002
 357.00  8.1502E+002
 357.50  8.1206E+002
 358.00  8.0987E+002
 358.50  8.0651E+002
 359.00  8.0295E+002
 359.50  8.0471E+002
 360.00  8.1044E+002
 360.50  8.1305E+002
 361.00  8.2096E+002
 361.50  8.2635E+002
 362.00  8.2642E+002
 362.50  8.3102E+002
 363.00  8.4203E+002
 363.50  8.4580E+002
 364.00  8.4382E+002
 364.50  8.4407E+002
 365.00  8.4456E+002
 365.50  8.4137E+002
 366.00  8.3848E+002
 366.50  8.3954E+002
 367.00  8.3840E+002
 367.50  8.3511E+002
 368.00  8.3353E+002
 368.50  8.3235E+002
 369.00  8.3564E+002
 369.50  8.4082E+002
 370.00  8.4109E+002
 370.50  8.3830E+002
 371.00  8.4099E+002
 371.50  8.4048E+002
 372.00  8.3657E+002
 372.50  8.3557E+002
 373.00  8.3451E+002
 373.50  8.3105E+002
 374.00  8.3328E+002
 374.50  8.3694E+002
 375.00  8.3392E+002
 375.50  8.2981E+002
 376.00  8.1932E+002
 376.50  8.0376E+002
 377.00  7.9030E+002
 377.50  7.8480E+002
 378.00  7.8471E+002
 378.50  7.9111E+002
 379.00  7.9736E+002
 379.50  8.0606E+002
 380.00  8.1903E+002
 380.50  8.2992E+002
 381.00  8.3530E+002
 381.50  8.3944E+002
 382.00  8.4092E+002
 382.50  8.3821E+002
 383.00  8.3870E+002
 383.50  8.4185E+002
 384.00  8.4306E+002
 384.50  8.3352E+002
 385.00  8.1632E+002
 385.50  7.9617E+002
 386.00  7.8287E+002
 386.50  7.7680E+002
 387.00  7.8127E+002
 387.50  7.9627E+002
 388.00  8.1004E+002
 388.50  8.1947E+002
 389.00  8.2562E+002
 389.50  8.2522E+002
 390.00  8.1836E+002
 390.50  8.1591E+002
 391.00  8.1661E+002
 391.50  8.1294E+002
 392.00  8.1214E+002
 392.50  8.0968E+002
 393.00  8.0708E+002
 393.50  8.0564E+002
 394.00  8.0215E+002
 394.50  8.0653E+002
 395.00  8.2158E+002
 395.50  8.3510E+002
 396.00  8.4366E+002
 396.50  8.6030E+002
 397.00  8.7726E+002
 397.50  8.8641E+002
 398.00  8.8398E+002
 398.50  8.7600E+002
 399.00  8.7039E+002
 399.50  8.6996E+002
 400.00  8.7092E+002
 400.50  8.6888E+002
 401.00  8.6444E+002
 401.50  8.5981E+002
 402.00  8.5267E+002
 402.50  8.4904E+002
 403.00  8.5761E+002
 403.50  8.6543E+002
 404.00  8.6144E+002
 404.50  8.5035E+002
 405.00  8.3659E+002
 405.50  8.2477E+002
 406.00  8.2245E+002
 406.50  8.2635E+002
 407.00  8.3100E+002
 407.50  8.3791E+002
 408.00  8.4408E+002
 408.50  8.4688E+002
 409.00  8.4841E+002
 409.50  8.5137E+002
 410.00  8.5493E+002
 410.50  8.5380E+002
 411.00  8.4785E+002
 411.50  8.4227E+002
 412.00  8.3602E+002
 412.50  8.2825E+002
 413.00  8.2632E+002
 413.50  8.3249E+002
 414.00  8.4070E+002
 414.50  8.4559E+002
 415.00  8.4484E+002
 415.50  8.3795E+002
 416.00  8.2764E+002
 416.50  8.1588E+002
 417.00  8.0327E+002
 417.50  7.9795E+002
 418.00  8.0451E+002
 418.50  8.1264E+002
 419.00  8.1698E+002
 419.50  8.2482E+002
 420.00  8.3371E+002
 420.50  8.3448E+002
 421.00  8.3028E+002
 421.50  8.2589E+002
 422.00  8.2264E+002
 422.50  8.2342E+002
 423.00  8.2699E+002
 423.50  8.3597E+002
 424.00  8.4797E+002
 424.50  8.5717E+002
 425.00  8.6148E+002
 425.50  8.6774E+002
 426.00  8.7120E+002
 426.50  8.7119E+002
 427.00  8.6440E+002
 427.50  8.5295E+002
 428.00  8.4396E+002
 428.50  8.3563E+002
 429.00  8.3432E+002
 429.50  8.4534E+002
 430.00  8.5336E+002
 430.50  8.5377E+002
 431.00  8.5768E+002
 431.50  8.6275E+002
 432.00  8.5828E+002
 432.50  8.5041E+002
 433.00  8.4683E+002
 433.50  8.4286E+002
 434.00  8.3796E+002
 434.50  8.4002E+002
 435.00  8.4648E+002
 435.50  8.4887E+002
 436.00  8.4345E+002
 436.50  8.3280E+002
 437.00  8.2534E+002
 437.50  8.2405E+002
 438.00  8.2743E+002
 438.50  8.3292E+002
 439.00  8.3594E+002
 439.50  8.3821E+002
 440.00  8.3651E+002
 440.50  8.3283E+002
 441.00  8.3673E+002
 441.50  8.3860E+002
 442.00  8.3080E+002
 442.50  8.2392E+002
 443.00  8.2013E+002
 443.50  8.1753E+002
 444.00  8.2451E+002
 444.50  8.3166E+002
 445.00  8.3315E+002
 445.50  8.2596E+002
 446.00  8.1148E+002
 446.50  7.9396E+002
 447.00  7.8199E+002
 447.50  7.7950E+002
 448.00  7.8546E+002
 448.50  7.9604E+002
 449.00  8.0783E+002
 449.50  8.1798E+002
 450.00  8.2714E+002
 450.50  8.3299E+002
 451.00  8.4208E+002
 451.50  8.5762E+002
 452.00  8.7080E+002
 452.50  8.7334E+002
 453.00  8.6909E+002
 453.50  8.6112E+002
 454.00  8.4713E+002
 454.50  8.3727E+002
 455.00  8.4153E+002
 455.50  8.5011E+002
 456.00  8.5522E+002
 456.50  8.5687E+002
 457.00  8.5756E+002
 457.50  8.5514E+002
 458.00  8.4460E+002
 458.50  8.3177E+002
 459.00  8.2822E+002
 459.50  8.2255E+002
 460.00  8.1631E+002
 460.50  8.3519E+002
 461.00  8.6382E+002
 461.50  8.7569E+002
 462.00  8.7951E+002
 462.50  8.8002E+002
 463.00  8.6634E+002
 463.50  8.4912E+002
 464.00  8.4409E+002
 464.50  8.4564E+002
 465.00  8.4728E+002
 465.50  8.4736E+002
 466.00  8.4536E+002
 466.50  8.4325E+002
 467.00  8.3876E+002
 467.50  8.2968E+002
 468.00  8.1928E+002
 468.50  8.0674E+002
 469.00  7.9393E+002
 469.50  7.8884E+002
 470.00  7.9350E+002
 470.50  8.0610E+002
 471.00  8.2494E+002
 471.50  8.4169E+002
 472.00  8.5264E+002
 472.50  8.5682E+002
 473.00  8.4932E+002
 473.50  8.3921E+002
 474.00  8.3700E+002
 474.50  8.3418E+002
 475.00  8.2431E+002
 475.50  8.2198E+002
 476.00  8.2713E+002
 476.50  8.2665E+002
 477.00  8.3338E+002
 477.50  8.4667E+002
 478.00  8.5429E+002
 478.50  8.5731E+002
 479.00  8.5802E+002
 479.50  8.5250E+002
 480.00  8.4757E+002
 480.50  8.4804E+002
 481.00  8.4876E+002
 481.50  8.4939E+002
 482.00  8.5274E+002
 482.50  8.5490E+002
 483.00  8.5108E+002
 483.50  8.4983E+002
 484.00  8.5352E+002
 484.50  8.5922E+002
 485.00  8.6312E+002
 485.50  8.6721E+002
 486.00  8.6686E+002
 486.50  8.5826E+002
 487.00  8.4341E+002
 487.50  8.3031E+002
 488.00  8.1681E+002
 488.50  7.9739E+002
 489.00  7.8546E+002
 489.50  7.8487E+002
 490.00  7.8631E+002
 490.50  7.9405E+002
 491.00  8.1313E+002
 491.50  8.2574E+002
 492.00  8.2708E+002
 492.50  8.2347E+002
 493.00  8.1231E+002
 493.50  7.9588E+002
 494.00  7.8848E+002
 494.50  7.9091E+002
 495.00  8.0492E+002
 495.50  8.2041E+002
 496.00  8.3225E+002
 496.50  8.4122E+002
 497.00  8.4255E+002
 497.50  8.3293E+002
 498.00  8.2632E+002
 498.50  8.2640E+002
 499.00  8.2792E+002
 499.50  8.3089E+002
 500.00  8.3936E+002
 500.50  8.4532E+002
 501.00  8.4289E+002
 501.50  8.3889E+002
 502.00  8.3671E+002
 502.50  8.3435E+002
 503.00  8.3446E+002
 503.50  8.3900E+002
 504.00  8.4372E+002
 504.50  8.3983E+002
 505.00  8.3199E+002
 505.50  8.2288E+002
 506.00  8.1301E+002
 506.50  8.1166E+002
 507.00  8.1478E+002
 507.50  8.1981E+002
 508.00  8.3051E+002
 508.50  8.4212E+002
 509.00  8.5340E+002
 509.50  8.6578E+002
 510.00  8.7393E+002
 510.50  8.7470E+002
 511.00  8.6691E+002
 511.50  8.5781E+002
 512.00  8.5050E+002
 512.50  8.4775E+002
 513.00  8.5272E+002
 513.50  8.6358E+002
 514.00  8.7298E+002
 514.50  8.8466E+002
 515.00  8.9514E+002
 515.50  9.0350E+002
 516.00  9.0550E+002
 516.50  9.0090E+002
 517.00  8.9022E+002
 517.50  8.7490E+002
 518.00  8.5840E+002
 518.50  8.4842E+002
 519.00  8.4538E+002
 519.50  8.4832E+002
 520.00  8.5159E+002
 520.50  8.5548E+002
 521.00  8.5227E+002
 521.50  8.4321E+002
 522.00  8.3410E+002
 522.50  8.2554E+002
 523.00  8.1782E+002
 523.50  8.1049E+002
 524.00  8.0556E+002
 524.50  8.0581E+002
 525.00  8.1021E+002
 525.50  8.1736E+002
 526.00  8.3005E+002
 526.50  8.4077E+002
 527.00  8.4905E+002
 527.50  8.5666E+002
 528.00  8.5780E+002
 528.50  8.5722E+002
 529.00  8.5670E+002
 529.50  8.4989E+002
 530.00  8.5071E+002
 530.50  8.4848E+002
 531.00  8.3698E+002
 531.50  8.2877E+002
 532.00  8.2607E+002
 532.50  8.2551E+002
 533.00  8.3068E+002
 533.50  8.3746E+002
 534.00  8.4170E+002
 534.50  8.4680E+002
 535.00  8.5465E+002
 535.50  8.5750E+002
 536.00  8.6177E+002
 536.50  8.6938E+002
 537.00  8.6700E+002
 537.50  8.6766E+002
 538.00  8.7523E+002
 538.50  8.7737E+002
 539.00  8.6943E+002
 539.50  8.6593E+002
 540.00  8.6435E+002
 540.50  8.5651E+002
 541.00  8.5415E+002
 541.50  8.5473E+002
 542.00  8.4508E+002
 542.50  8.4283E+002
 543.00  8.4904E+002
 543.50  8.5020E+002
 544.00  8.5525E+002
 544.50  8.6569E+002
 545.00  8.6854E+002
 545.50  8.6703E+002
 546.00  8.6447E+002
 546.50  8.5592E+002
 547.00  8.5002E+002
 547.50  8.5165E+002
 548.00  8.4967E+002
 548.50  8.4757E+002
 549.00  8.4507E+002
 549.50  8.4193E+002
 550.00  8.3675E+002
 550.50  8.3756E+002
 551.00  8.4183E+002
 551.50  8.3906E+002
 552.00  8.3322E+002
 552.50  8.2953E+002
 553.00  8.2663E+002
 553.50  8.2766E+002
 554.00  8.3703E+002
 554.50  8.4672E+002
 555.00  8.4577E+002
 555.50  8.3995E+002
 556.00  8.3401E+002
 556.50  8.2326E+002
 557.00  8.2034E+002
 557.50  8.2948E+002
 558.00  8.4442E+002
 558.50  8.5714E+002
 559.00  8.6592E+002
 559.50  8.7135E+002
 560.00  8.7018E+002
 560.50  8.5966E+002
 561.00  8.4782E+002
 561.50  8.4278E+002
 562.00  8.4031E+002
 562.50  8.4104E+002
 563.00  8.5055E+002
 563.50  8.5565E+002
 564.00  8.5735E+002
 564.50  8.6593E+002
 565.00  8.7282E+002
 565.50  8.7803E+002
 566.00  8.8480E+002
 566.50  8.8794E+002
 567.00  8.8629E+002
 567.50  8.9490E+002
 568.00  9.0172E+002
 568.50  9.0296E+002
 569.00  8.9901E+002
 569.50  8.9219E+002
 570.00  8.7820E+002
 570.50  8.6689E+002
 571.00  8.6613E+002
 571.50  8.6826E+002
 572.00  8.6860E+002
 572.50  8.7477E+002
 573.00  8.8283E+002
 573.50  8.9242E+002
 574.00  9.0302E+002
 574.50  9.0900E+002
 575.00  9.0993E+002
 575.50  9.0485E+002
 576.00  8.9422E+002
 576.50  8.8312E+002
 577.00  8.7432E+002
 577.50  8.6987E+002
 578.00  8.6485E+002
 578.50  8.5860E+002
 579.00  8.6434E+002
 579.50  8.7323E+002
 580.00  8.8803E+002
 580.50  9.0392E+002
 581.00  9.1234E+002
 581.50  9.1404E+002
 582.00  9.1209E+002
 582.50  9.0433E+002
 583.00  8.9562E+002
 583.50  8.9024E+002
 584.00  8.8972E+002
 584.50  8.8676E+002
 585.00  8.8739E+002
 585.50  8.9144E+002
 586.00  8.9746E+002
 586.50  9.0441E+002
 587.00  9.1170E+002
 587.50  9.1919E+002
 588.00  9.2636E+002
 588.50  9.2952E+002
 589.00  9.2872E+002
 589.50  9.3842E+002
 590.00  9.5299E+002
 590.50  9.6596E+002
 591.00  9.8576E+002
 591.50  9.9886E+002
 592.00  1.0081E+003
 592.50  1.0368E+003
 593.00  1.0881E+003
 593.50  1.1729E+003
 594.00  1.3149E+003
 594.50  1.5187E+003
 595.00  1.7898E+003
 595.50  2.1396E+003
 596.00  2.5865E+003
 596.50  3.1244E+003
 597.00  3.7225E+003
 597.50  4.3668E+003
 598.00  5.0332E+003
 598.50  5.6841E+003
 599.00  6.3112E+003
 599.50  6.9101E+003
 600.00  7.4670E+003
 600.50  7.9765E+003
 601.00  8.4439E+003
 601.50  8.8795E+003
 602.00  9.2692E+003
 602.50  9.5772E+003
 603.00  9.7288E+003
 603.50  9.6127E+003
 604.00  9.1835E+003
 604.50  8.4613E+003
 605.00  7.5128E+003
 605.50  6.4252E+003
 606.00  5.2852E+003
 606.50  4.1856E+003
 607.00  3.1978E+003
 607.50  2.3890E+003
 608.00  1.8136E+003
 608.50  1.4578E+003
 609.00  1.2593E+003
 609.50  1.1554E+003
 610.00  1.0981E+003
 610.50  1.0620E+003
 611.00  1.0351E+003
 611.50  1.0143E+003
 612.00  9.9345E+002
 612.50  9.7175E+002
 613.00  9.5833E+002
 613.50  9.4938E+002
 614.00  9.4398E+002
 614.50  9.4241E+002
 615.00  9.4232E+002
 615.50  9.4454E+002
 616.00  9.4689E+002
 616.50  9.4626E+002
 617.00  9.4330E+002
 617.50  9.3754E+002
 618.00  9.3208E+002
 618.50  9.2646E+002
 619.00  9.2061E+002
 619.50  9.1789E+002
 620.00  9.1264E+002
 620.50  9.0736E+002
 621.00  9.1625E+002
 621.50  9.3055E+002
 622.00  9.3312E+002
 622.50  9.3106E+002
 623.00  9.2558E+002
 623.50  9.1006E+002
 624.00  9.0017E+002
 624.50  9.0208E+002
 625.00  8.9834E+002
 625.50  8.9511E+002
 626.00  8.9832E+002
 626.50  9.0501E+002
 627.00  9.0841E+002
 627.50  9.1038E+002
 628.00  9.1173E+002
 628.50  8.9883E+002
 629.00  8.7910E+002
 629.50  8.7154E+002
 630.00  8.6695E+002
 630.50  8.6041E+002
 631.00  8.5700E+002
 631.50  8.5821E+002
 632.00  8.6116E+002
 632.50  8.6430E+002
 633.00  8.6833E+002
 633.50  8.6380E+002
 634.00  8.4978E+002
 634.50  8.3057E+002
 635.00  8.1863E+002
 635.50  8.1839E+002
 636.00  8.2504E+002
 636.50  8.3869E+002
 637.00  8.5956E+002
 637.50  8.7280E+002
 638.00  8.7323E+002
 638.50  8.6766E+002
 639.00  8.5870E+002
 639.50  8.4821E+002
 640.00  8.4458E+002
 640.50  8.4970E+002
 641.00  8.5764E+002
 641.50  8.6724E+002
 642.00  8.7738E+002
 642.50  8.7756E+002
 643.00  8.7260E+002
 643.50  8.6546E+002
 644.00  8.6038E+002
 644.50  8.6048E+002
 645.00  8.6584E+002
 645.50  8.6994E+002
 646.00  8.6970E+002
 646.50  8.7495E+002
 647.00  8.7751E+002
 647.50  8.7456E+002
 648.00  8.7483E+002
 648.50  8.6832E+002
 649.00  8.5850E+002
 649.50  8.6028E+002
 650.00  8.5800E+002
 650.50  8.6042E+002
 651.00  8.6231E+002
 651.50  8.5559E+002
 652.00  8.5173E+002
 652.50  8.4768E+002
 653.00  8.3843E+002
 653.50  8.3752E+002
 654.00  8.4649E+002
 654.50  8.5475E+002
 655.00  8.5736E+002
 655.50  8.5645E+002
 656.00  8.5090E+002
 656.50  8.4087E+002
 657.00  8.3433E+002
 657.50  8.2985E+002
 658.00  8.2464E+002
 658.50  8.1655E+002
 659.00  8.0940E+002
 659.50  8.0695E+002
 660.00  8.1037E+002
 660.50  8.2156E+002
 661.00  8.2818E+002
 661.50  8.3003E+002
 662.00  8.2056E+002
 662.50  7.9322E+002
 663.00  7.7948E+002
 663.50  7.7977E+002
 664.00  7.8126E+002
 664.50  8.0231E+002
 665.00  8.2200E+002
 665.50  8.2679E+002
 666.00  8.3037E+002
 666.50  8.3728E+002
 667.00  8.4428E+002
 667.50  8.5167E+002
 668.00  8.5758E+002
 668.50  8.6287E+002
 669.00  8.6312E+002
 669.50  8.5480E+002
 670.00  8.5067E+002
 670.50  8.5538E+002
 671.00  8.5508E+002
 671.50  8.6060E+002
 672.00  8.7014E+002
 672.50  8.7478E+002
 673.00  8.7608E+002
 673.50  8.8132E+002
 674.00  8.8737E+002
 674.50  8.8584E+002
 675.00  8.8216E+002
 675.50  8.7612E+002
 676.00  8.6956E+002
 676.50  8.6975E+002
 677.00  8.7020E+002
 677.50  8.6361E+002
 678.00  8.5681E+002
 678.50  8.4753E+002
 679.00  8.4051E+002
 679.50  8.3812E+002
 680.00  8.4079E+002
 680.50  8.4435E+002
 681.00  8.3953E+002
 681.50  8.3646E+002
 682.00  8.4242E+002
 682.50  8.4422E+002
 683.00  8.3911E+002
 683.50  8.3041E+002
 684.00  8.1837E+002
 684.50  8.0725E+002
 685.00  8.0696E+002
 685.50  8.1396E+002
 686.00  8.2207E+002
 686.50  8.2653E+002
 687.00  8.2957E+002
 687.50  8.3493E+002
 688.00  8.3087E+002
 688.50  8.2771E+002
 689.00  8.2303E+002
 689.50  8.1260E+002
 690.00  8.1712E+002
 690.50  8.2338E+002
 691.00  8.2450E+002
 691.50  8.3020E+002
 692.00  8.3303E+002
 692.50  8.3510E+002
 693.00  8.4131E+002
 693.50  8.5103E+002
 694.00  8.5979E+002
 694.50  8.6267E+002
 695.00  8.6391E+002
 695.50  8.6011E+002
 696.00  8.4812E+002
 696.50  8.3080E+002
 697.00  8.1991E+002
 697.50  8.2225E+002
 698.00  8.3661E+002
 698.50  8.5427E+002
 699.00  8.6725E+002
 699.50  8.6940E+002
 700.00  8.6396E+002
 700.50  8.6710E+002
 701.00  8.7566E+002
 701.50  8.8184E+002
 702.00  8.8267E+002
 702.50  8.7843E+002
 703.00  8.6263E+002
 703.50  8.4870E+002
 704.00  8.4383E+002
 704.50  8.3368E+002
 705.00  8.2281E+002
 705.50  8.2678E+002
 706.00  8.2674E+002
 706.50  8.2893E+002
 707.00  8.4443E+002
 707.50  8.5616E+002
 708.00  8.5713E+002
 708.50  8.6322E+002
 709.00  8.6407E+002
 709.50  8.6186E+002
 710.00  8.6537E+002
 710.50  8.6082E+002
 711.00  8.4694E+002
 711.50  8.3611E+002
 712.00  8.2089E+002
 712.50  8.0785E+002
 713.00  8.0284E+002
 713.50  7.9810E+002
 714.00  7.9499E+002
 714.50  8.0627E+002
 715.00  8.1551E+002
 715.50  8.2281E+002
 716.00  8.3546E+002
 716.50  8.5028E+002
 717.00  8.5757E+002
 717.50  8.6035E+002
 718.00  8.5720E+002
 718.50  8.4512E+002
 719.00  8.3768E+002
 719.50  8.3967E+002
 720.00  8.4192E+002
 720.50  8.3475E+002
 721.00  8.2676E+002
 721.50  8.2730E+002
 722.00  8.3662E+002
 722.50  8.5137E+002
 723.00  8.6057E+002
 723.50  8.6331E+002
 724.00  8.6607E+002
 724.50  8.6489E+002
 725.00  8.6335E+002
 725.50  8.6360E+002
 726.00  8.5799E+002
 726.50  8.6053E+002
 727.00  8.7182E+002
 727.50  8.7830E+002
 728.00  8.8226E+002
 728.50  8.8052E+002
 729.00  8.7234E+002
 729.50  8.7090E+002
 730.00  8.6920E+002
 730.50  8.5775E+002
 731.00  8.4916E+002
 731.50  8.4092E+002
 732.00  8.2961E+002
 732.50  8.2355E+002
 733.00  8.2380E+002
 733.50  8.2494E+002
 734.00  8.2966E+002
 734.50  8.4196E+002
 735.00  8.5040E+002
 735.50  8.4742E+002
 736.00  8.3510E+002
 736.50  8.2508E+002
 737.00  8.1873E+002
 737.50  8.1300E+002
 738.00  8.1592E+002
 738.50  8.2017E+002
 739.00  8.1436E+002
 739.50  8.1039E+002
 740.00  8.0380E+002
 740.50  7.9192E+002
 741.00  7.8222E+002
 741.50  7.8313E+002
 742.00  7.9315E+002
 742.50  7.9942E+002
 743.00  8.1203E+002
 743.50  8.2608E+002
 744.00  8.2729E+002
 744.50  8.3135E+002
 745.00  8.3370E+002
 745.50  8.2881E+002
 746.00  8.2780E+002
 746.50  8.2474E+002
 747.00  8.2887E+002
 747.50  8.4122E+002
 748.00  8.4830E+002
 748.50  8.6097E+002
 749.00  8.6627E+002
 749.50  8.5559E+002
 750.00  8.5189E+002
 750.50  8.5505E+002
 751.00  8.6090E+002
 751.50  8.6648E+002
 752.00  8.7335E+002
 752.50  8.7051E+002
 753.00  8.6217E+002
 753.50  8.5638E+002
 754.00  8.5180E+002
 754.50  8.5617E+002
 755.00  8.6369E+002
 755.50  8.7194E+002
 756.00  8.7648E+002
 756.50  8.6672E+002
 757.00  8.5044E+002
 757.50  8.3161E+002
 758.00  8.1583E+002
 758.50  8.1559E+002
 759.00  8.2857E+002
 759.50  8.4649E+002
 760.00  8.5473E+002
 760.50  8.5178E+002
 761.00  8.4343E+002
 761.50  8.3726E+002
 762.00  8.3465E+002
 762.50  8.3201E+002
 763.00  8.2518E+002
 763.50  8.1977E+002
 764.00  8.1704E+002
 764.50  8.2103E+002
 765.00  8.2975E+002
 765.50  8.3301E+002
 766.00  8.3307E+002
 766.50  8.3511E+002
 767.00  8.3962E+002
 767.50  8.4330E+002
 768.00  8.4909E+002
 768.50  8.5482E+002
 769.00  8.5862E+002
 769.50  8.5373E+002
 770.00  8.4397E+002
 770.50  8.3488E+002
 771.00  8.2514E+002
 771.50  8.3251E+002
 772.00  8.4554E+002
 772.50  8.5481E+002
 773.00  8.6048E+002
 773.50  8.6061E+002
 774.00  8.6551E+002
 774.50  8.7010E+002
 775.00  8.7414E+002
 775.50  8.7834E+002
 776.00  8.7511E+002
 776.50  8.6519E+002
 777.00  8.5783E+002
 777.50  8.5037E+002
 778.00  8.3926E+002
 778.50  8.3556E+002
 779.00  8.3167E+002
 779.50  8.2484E+002
 780.00  8.2237E+002
 780.50  8.1843E+002
 781.00  8.1428E+002
 781.50  8.0837E+002
 782.00  7.9897E+002
 782.50  7.9585E+002
 783.00  7.9653E+002
 783.50  8.0234E+002
 784.00  8.0984E+002
 784.50  8.1061E+002
 785.00  8.1429E+002
 785.50  8.2105E+002
 786.00  8.2408E+002
 786.50  8.3201E+002
 787.00  8.4309E+002
 787.50  8.4350E+002
 788.00  8.4660E+002
 788.50  8.4799E+002
 789.00  8.3539E+002
 789.50  8.2384E+002
 790.00  8.1102E+002
 790.50  8.0022E+002
 791.00  7.9917E+002
 791.50  8.0570E+002
 792.00  8.1848E+002
 792.50  8.3088E+002
 793.00  8.3868E+002
 793.50  8.3816E+002
 794.00  8.4599E+002
 794.50  8.4766E+002
 795.00  8.4695E+002
 795.50  8.5205E+002
 796.00  8.4904E+002
 796.50  8.5009E+002
 797.00  8.4799E+002
 797.50  8.4284E+002
 798.00  8.4239E+002
 798.50  8.4425E+002
 799.00  8.5090E+002
 799.50  8.5619E+002
 800.00  8.5774E+002
 800.50  8.5219E+002
 801.00  8.4914E+002
 801.50  8.4893E+002
 802.00  8.5289E+002
 802.50  8.6048E+002
 803.00  8.6330E+002
 803.50  8.6947E+002
 804.00  8.6758E+002
 804.50  8.5811E+002
 805.00  8.4246E+002
 805.50  8.3183E+002
 806.00  8.2628E+002
 806.50  8.2323E+002
 807.00  8.2586E+002
 807.50  8.1565E+002
 808.00  8.0071E+002
 808.50  7.9430E+002
 809.00  7.9291E+002
 809.50  7.9570E+002
 810.00  8.0386E+002
 810.50  8.0411E+002
 811.00  7.9957E+002
 811.50  8.0325E+002
 812.00  8.1150E+002
 812.50  8.2391E+002
 813.00  8.3706E+002
 813.50  8.4163E+002
 814.00  8.3603E+002
 814.50  8.3398E+002
 815.00  8.4166E+002
 815.50  8.5357E+002
 816.00  8.6614E+002
 816.50  8.7188E+002
 817.00  8.6779E+002
 817.50  8.6235E+002
 818.00  8.5660E+002
 818.50  8.5759E+002
 819.00  8.6993E+002
 819.50  8.6898E+002
 820.00  8.6713E+002
 820.50  8.6745E+002
 821.00  8.5414E+002
 821.50  8.4794E+002
 822.00  8.4606E+002
 822.50  8.4398E+002
 823.00  8.4816E+002
 823.50  8.5173E+002
 824.00  8.5884E+002
 824.50  8.6304E+002
 825.00  8.5748E+002
 825.50  8.5296E+002
 826.00  8.4077E+002
 826.50  8.2605E+002
 827.00  8.2977E+002
 827.50  8.3392E+002
 828.00  8.3887E+002
 828.50  8.4515E+002
 829.00  8.4926E+002
 829.50  8.5924E+002
 830.00  8.7212E+002
 830.50  8.7931E+002
 831.00  8.7093E+002
 831.50  8.5753E+002
 832.00  8.4382E+002
 832.50  8.3585E+002
 833.00  8.3952E+002
 833.50  8.4054E+002
 834.00  8.3611E+002
 834.50  8.3066E+002
 835.00  8.2482E+002
 835.50  8.2708E+002
 836.00  8.3355E+002
 836.50  8.2992E+002
 837.00  8.2582E+002
 837.50  8.2121E+002
 838.00  8.1300E+002
 838.50  8.0353E+002
 839.00  7.9314E+002
 839.50  7.8944E+002
 840.00  7.8609E+002
 840.50  7.9402E+002
 841.00  8.0325E+002
 841.50  8.1373E+002
 842.00  8.3103E+002
 842.50  8.4862E+002
 843.00  8.5637E+002
 843.50  8.5008E+002
 844.00  8.4079E+002
 844.50  8.2989E+002
 845.00  8.1977E+002
 845.50  8.1349E+002
 846.00  8.1489E+002
 846.50  8.1998E+002
 847.00  8.2679E+002
 847.50  8.3094E+002
 848.00  8.2691E+002
 848.50  8.2108E+002
 849.00  8.2203E+002
 849.50  8.3058E+002
 850.00  8.3391E+002
 850.50  8.3327E+002
 851.00  8.3512E+002
 851.50  8.3476E+002
 852.00  8.3856E+002
 852.50  8.4816E+002
 853.00  8.5071E+002
 853.50  8.5267E+002
 854.00  8.4707E+002
 854.50  8.4148E+002
 855.00  8.4558E+002
 855.50  8.4160E+002
 856.00  8.4494E+002
 856.50  8.4336E+002
 857.00  8.2936E+002
 857.50  8.1541E+002
 858.00  8.0224E+002
 858.50  7.9825E+002
 859.00  8.0836E+002
 859.50  8.2591E+002
 860.00  8.3528E+002
 860.50  8.3940E+002
 861.00  8.2862E+002
 861.50  8.1552E+002
 862.00  8.1404E+002
 862.50  8.1505E+002
 863.00  8.2459E+002
 863.50  8.3344E+002
 864.00  8.3580E+002
 864.50  8.3514E+002
 865.00  8.3878E+002
 865.50  8.4590E+002
 866.00  8.4470E+002
 866.50  8.4144E+002
 867.00  8.4279E+002
 867.50  8.4395E+002
 868.00  8.5014E+002
 868.50  8.4616E+002
 869.00  8.2649E+002
 869.50  8.0997E+002
 870.00  8.0461E+002
 870.50  8.1338E+002
 871.00  8.3859E+002
 871.50  8.5943E+002
 872.00  8.6708E+002
 872.50  8.6168E+002
 873.00  8.5130E+002
 873.50  8.4410E+002
 874.00  8.4166E+002
 874.50  8.3719E+002
 875.00  8.2680E+002
 875.50  8.1891E+002
 876.00  8.0925E+002
 876.50  7.9685E+002
 877.00  7.8491E+002
 877.50  7.8088E+002
 878.00  7.8691E+002
 878.50  8.0222E+002
 879.00  8.2041E+002
 879.50  8.2951E+002
 880.00  8.2831E+002
 880.50  8.2466E+002
 881.00  8.1870E+002
 881.50  8.0961E+002
 882.00  8.0947E+002
 882.50  8.1132E+002
 883.00  8.0769E+002
 883.50  8.1180E+002
 884.00  8.1010E+002
 884.50  8.1265E+002
 885.00  8.2091E+002
 885.50  8.2222E+002
 886.00  8.2656E+002
 886.50  8.3939E+002
 887.00  8.5351E+002
 887.50  8.6717E+002
 888.00  8.7504E+002
 888.50  8.7265E+002
 889.00  8.6729E+002
 889.50  8.5646E+002
 890.00  8.5123E+002
 890.50  8.4736E+002
 891.00  8.5223E+002
 891.50  8.5850E+002
 892.00  8.5478E+002
 892.50  8.4401E+002
 893.00  8.2760E+002
 893.50  8.1815E+002
 894.00  8.2562E+002
 894.50  8.3227E+002
 895.00  8.4686E+002
 895.50  8.5479E+002
 896.00  8.3965E+002
 896.50  8.2985E+002
 897.00  8.2337E+002
 897.50  8.2523E+002
 898.00  8.3830E+002
 898.50  8.3520E+002
 899.00  8.2420E+002
 899.50  8.0982E+002
 900.00  8.0796E+002
 900.50  8.1976E+002
 901.00  8.3442E+002
 901.50  8.5112E+002
 902.00  8.5411E+002
 902.50  8.5390E+002
 903.00  8.4446E+002
 903.50  8.2648E+002
 904.00  8.0994E+002
 904.50  7.9424E+002
 905.00  7.9029E+002
 905.50  7.9418E+002
 906.00  7.9081E+002
 906.50  7.8899E+002
 907.00  7.9459E+002
 907.50  8.1099E+002
 908.00  8.3340E+002
 908.50  8.4977E+002
 909.00  8.5506E+002
 909.50  8.5152E+002
 910.00  8.5034E+002
 910.50  8.4521E+002
 911.00  8.4112E+002
 911.50  8.4131E+002
 912.00  8.4273E+002
 912.50  8.5468E+002
 913.00  8.6052E+002
 913.50  8.6372E+002
 914.00  8.6398E+002
 914.50  8.6177E+002
 915.00  8.5601E+002
 915.50  8.5225E+002
 916.00  8.4351E+002
 916.50  8.3264E+002
 917.00  8.2536E+002
 917.50  8.2754E+002
 918.00  8.3548E+002
 918.50  8.5043E+002
 919.00  8.5977E+002
 919.50  8.5948E+002
 920.00  8.5383E+002
 920.50  8.3243E+002
 921.00  8.1463E+002
 921.50  8.0420E+002
 922.00  7.9583E+002
 922.50  7.9457E+002
 923.00  7.9089E+002
 923.50  7.8673E+002
 924.00  7.8951E+002
 924.50  7.9222E+002
 925.00  7.9268E+002
 925.50  7.9400E+002
 926.00  8.1223E+002
 926.50  8.3167E+002
 927.00  8.4311E+002
 927.50  8.3684E+002
 928.00  8.2679E+002
 928.50  8.2230E+002
 929.00  8.2595E+002
 929.50  8.3304E+002
 930.00  8.3145E+002
 930.50  8.2086E+002
 931.00  8.1505E+002
 931.50  8.1388E+002
 932.00  8.1195E+002
 932.50  8.2466E+002
 933.00  8.3885E+002
 933.50  8.4755E+002
 934.00  8.6031E+002
 934.50  8.5649E+002
 935.00  8.5985E+002
 935.50  8.6241E+002
 936.00  8.5060E+002
 936.50  8.5076E+002
 937.00  8.4478E+002
 937.50  8.5071E+002
 938.00  8.7335E+002
 938.50  8.8682E+002
 939.00  8.7995E+002
 939.50  8.6089E+002
 940.00  8.4311E+002
 940.50  8.3693E+002
 941.00  8.4497E+002
 941.50  8.5830E+002
 942.00  8.5630E+002
 942.50  8.4473E+002
 943.00  8.3850E+002
 943.50  8.3411E+002
 944.00  8.2846E+002
 944.50  8.2218E+002
 945.00  8.0800E+002
 945.50  7.8921E+002
 946.00  7.9004E+002
 946.50  7.9509E+002
 947.00  8.0639E+002
 947.50  8.1757E+002
 948.00  8.1919E+002
 948.50  8.2985E+002
 949.00  8.3341E+002
 949.50  8.3652E+002
 950.00  8.2588E+002
 950.50  8.0615E+002
 951.00  8.0944E+002
 951.50  8.1850E+002
 952.00  8.3608E+002
 952.50  8.4787E+002
 953.00  8.3596E+002
 953.50  8.1982E+002
 954.00  8.1826E+002
 954.50  8.2646E+002
 955.00  8.4437E+002
 955.50  8.5651E+002
 956.00  8.4864E+002
 956.50  8.4976E+002
 957.00  8.5552E+002
 957.50  8.6741E+002
 958.00  8.6519E+002
 958.50  8.6087E+002
 959.00  8.4284E+002
 959.50  8.2866E+002
 960.00  8.3085E+002
 960.50  8.3162E+002
 961.00  8.4108E+002
 961.50  8.5155E+002
 962.00  8.4628E+002
 962.50  8.4221E+002
 963.00  8.3625E+002
 963.50  8.2546E+002
 964.00  8.1842E+002
 964.50  8.1123E+002
 965.00  8.0227E+002
 965.50  8.1184E+002
 966.00  8.3171E+002
 966.50  8.4567E+002
 967.00  8.5412E+002
 967.50  8.4411E+002
 968.00  8.3514E+002
 968.50  8.2393E+002
 969.00  8.0837E+002
 969.50  7.9209E+002
 970.00  7.8867E+002
 970.50  7.9386E+002
 971.00  8.0527E+002
 971.50  8.1994E+002
 972.00  8.3544E+002
 972.50  8.4104E+002
 973.00  8.3763E+002
 973.50  8.2509E+002
 974.00  8.1748E+002
 974.50  8.1739E+002
 975.00  8.2229E+002
 975.50  8.2982E+002
 976.00  8.3755E+002
 976.50  8.4535E+002
 977.00  8.5080E+002
 977.50  8.6809E+002
 978.00  8.7455E+002
 978.50  8.7290E+002
 979.00  8.6278E+002
 979.50  8.4150E+002
 980.00  8.2986E+002
 980.50  8.3244E+002
 981.00  8.3858E+002
 981.50  8.5792E+002
 982.00  8.7390E+002
 982.50  8.6969E+002
 983.00  8.6196E+002
 983.50  8.4263E+002
 984.00  8.3586E+002
 984.50  8.3684E+002
 985.00  8.4946E+002
 985.50  8.6783E+002
 986.00  8.7295E+002
 986.50  8.7030E+002
 987.00  8.5900E+002
 987.50  8.4395E+002
 988.00  8.3654E+002
 988.50  8.3558E+002
 989.00  8.3702E+002
 989.50  8.3886E+002
 990.00  8.3888E+002
 990.50  8.2613E+002
 991.00  8.1025E+002
 991.50  7.9432E+002
 992.00  7.9825E+002
 992.50  8.1939E+002
 993.00  8.4695E+002
 993.50  8.5716E+002
 994.00  8.4072E+002
 994.50  8.3574E+002
 995.00  8.3404E+002
 995.50  8.4717E+002
 996.00  8.6803E+002
 996.50  8.6920E+002
 997.00  8.7272E+002
 997.50  8.6386E+002
 998.00  8.5094E+002
 998.50  8.3716E+002
 999.00  8.2809E+002
 999.50  8.2906E+002
1000.00  8.4381E+002
1000.50  8.5603E+002
1001.00  8.6750E+002
1001.50  8.8111E+002
1002.00  8.8419E+002
1002.50  8.8038E+002
1003.00  8.7705E+002
1003.50  8.7327E+002
1004.00  8.7709E+002
1004.50  8.8198E+002
1005.00  8.7048E+002
1005.50  8.5640E+002
1006.00  8.3715E+002
1006.50  8.1805E+002
1007.00  8.1803E+002
1007.50  8.3078E+002
1008.00  8.3570E+002
1008.50  8.2475E+002
1009.00  8.1424E+002
1009.50  8.1575E+002
1010.00  8.2930E+002
1010.50  8.3024E+002
1011.00  8.2407E+002
1011.50  8.2162E+002
1012.00  8.2820E+002
1012.50  8.3398E+002
1013.00  8.2085E+002
1013.50  8.0303E+002
1014.00  8.0539E+002
1014.50  8.1310E+002
1015.00  8.2579E+002
1015.50  8.2927E+002
1016.00  8.2055E+002
1016.50  8.1131E+002
1017.00  8.0984E+002
1017.50  8.2649E+002
1018.00  8.4789E+002
1018.50  8.6226E+002
1019.00  8.5166E+002
1019.50  8.2811E+002
1020.00  8.2254E+002
1020.50  8.2457E+002
1021.00  8.3170E+002
1021.50  8.4047E+002
1022.00  8.5047E+002
1022.50  8.6046E+002
1023.00  8.6283E+002
1023.50  8.5302E+002
1024.00  8.3361E+002
1024.50  8.1859E+002
1025.00  8.1301E+002
1025.50  8.1700E+002
1026.00  8.2891E+002
1026.50  8.3740E+002
1027.00  8.3817E+002
1027.50  8.2455E+002
1028.00  8.0554E+002
1028.50  7.9467E+002
1029.00  7.8951E+002
1029.50  7.9989E+002
1030.00  8.0270E+002
1030.50  8.0760E+002
1031.00  8.2344E+002
1031.50  8.3417E+002
1032.00  8.3982E+002
1032.50  8.2779E+002
1033.00  8.0996E+002
1033.50  8.0936E+002
1034.00  8.1014E+002
1034.50  8.1833E+002
1035.00  8.2600E+002
1035.50  8.2166E+002
1036.00  8.1991E+002
1036.50  8.1712E+002
1037.00  8.2084E+002
1037.50  8.3625E+002
1038.00  8.4730E+002
1038.50  8.5226E+002
1039.00  8.4638E+002
1039.50  8.4441E+002
1040.00  8.4668E+002
1040.50  8.4951E+002
1041.00  8.4860E+002
1041.50  8.3892E+002
1042.00  8.4375E+002
1042.50  8.5133E+002
1043.00  8.5703E+002
1043.50  8.5950E+002
1044.00  8.6303E+002
1044.50  8.7045E+002
1045.00  8.6591E+002
1045.50  8.5107E+002
1046.00  8.4065E+002
1046.50  8.3429E+002
1047.00  8.2386E+002
1047.50  8.2148E+002
1048.00  8.2412E+002
1048.50  8.3338E+002
1049.00  8.3666E+002
1049.50  8.2855E+002
1050.00  8.2354E+002
1050.50  8.2858E+002
1051.00  8.3439E+002
1051.50  8.4096E+002
1052.00  8.3483E+002
1052.50  8.2375E+002
1053.00  8.1481E+002
1053.50  8.1219E+002
1054.00  8.2000E+002
1054.50  8.3373E+002
1055.00  8.5124E+002
1055.50  8.5265E+002
1056.00  8.3808E+002
1056.50  8.1511E+002
1057.00  8.0686E+002
1057.50  8.3172E+002
1058.00  8.5632E+002
1058.50  8.6928E+002
1059.00  8.6985E+002
1059.50  8.5528E+002
1060.00  8.4746E+002
1060.50  8.4745E+002
1061.00  8.5530E+002
1061.50  8.6155E+002
1062.00  8.5832E+002
1062.50  8.5733E+002
1063.00  8.5554E+002
1063.50  8.5380E+002
1064.00  8.4242E+002
1064.50  8.2178E+002
1065.00  8.1317E+002
1065.50  8.1061E+002
1066.00  8.2147E+002
1066.50  8.3504E+002
1067.00  8.4119E+002
1067.50  8.3455E+002
1068.00  8.1991E+002
1068.50  8.0921E+002
1069.00  8.1154E+002
1069.50  8.2373E+002
1070.00  8.3402E+002
1070.50  8.3298E+002
1071.00  8.3317E+002
1071.50  8.4077E+002
1072.00  8.6025E+002
1072.50  7.0473E+002
