" File: Users\LabUser\Documents\MonochromatorCal
"  SCOPE->  Wave:693.48nm  Pix:1050  Val:826.600  Time: 10ms  Avg:1  Sm:1  Sg:0  Tc:off  SNAP  Xt:3  Ch:1  Xtrig  
 191.00  8.4823E+002
 191.50  8.9513E+002
 192.00  8.9700E+002
 192.50  8.6258E+002
 193.00  8.7726E+002
 193.50  8.7602E+002
 194.00  8.7646E+002
 194.50  8.7105E+002
 195.00  8.5017E+002
 195.50  8.1900E+002
 196.00  8.0246E+002
 196.50  8.0576E+002
 197.00  8.0836E+002
 197.50  8.0815E+002
 198.00  8.1483E+002
 198.50  8.0639E+002
 199.00  8.0933E+002
 199.50  8.1401E+002
 200.00  8.3644E+002
 200.50  8.5192E+002
 201.00  8.2985E+002
 201.50  8.0475E+002
 202.00  7.9962E+002
 202.50  7.9649E+002
 203.00  7.9214E+002
 203.50  7.9137E+002
 204.00  7.9430E+002
 204.50  7.9869E+002
 205.00  8.0251E+002
 205.50  8.0630E+002
 206.00  8.1027E+002
 206.50  8.1172E+002
 207.00  8.1318E+002
 207.50  8.2218E+002
 208.00  8.3191E+002
 208.50  8.3928E+002
 209.00  8.5115E+002
 209.50  8.5982E+002
 210.00  8.6400E+002
 210.50  8.6669E+002
 211.00  8.6856E+002
 211.50  8.6525E+002
 212.00  8.5999E+002
 212.50  8.5889E+002
 213.00  8.5821E+002
 213.50  8.5583E+002
 214.00  8.5897E+002
 214.50  8.6760E+002
 215.00  8.7028E+002
 215.50  8.6502E+002
 216.00  8.6125E+002
 216.50  8.5696E+002
 217.00  8.5166E+002
 217.50  8.4605E+002
 218.00  8.4488E+002
 218.50  8.4948E+002
 219.00  8.5526E+002
 219.50  8.6273E+002
 220.00  8.7344E+002
 220.50  8.8365E+002
 221.00  8.8917E+002
 221.50  8.9106E+002
 222.00  8.9164E+002
 222.50  8.8756E+002
 223.00  8.7501E+002
 223.50  8.5941E+002
 224.00  8.5016E+002
 224.50  8.3866E+002
 225.00  8.2253E+002
 225.50  8.1044E+002
 226.00  8.0483E+002
 226.50  8.0006E+002
 227.00  8.0126E+002
 227.50  8.1014E+002
 228.00  8.2262E+002
 228.50  8.3148E+002
 229.00  8.3623E+002
 229.50  8.4027E+002
 230.00  8.4280E+002
 230.50  8.4342E+002
 231.00  8.4458E+002
 231.50  8.4670E+002
 232.00  8.4653E+002
 232.50  8.4054E+002
 233.00  8.2974E+002
 233.50  8.1630E+002
 234.00  8.0861E+002
 234.50  7.9987E+002
 235.00  7.9524E+002
 235.50  7.9587E+002
 236.00  8.0214E+002
 236.50  8.1174E+002
 237.00  8.2089E+002
 237.50  8.2912E+002
 238.00  8.3566E+002
 238.50  8.3966E+002
 239.00  8.4088E+002
 239.50  8.4121E+002
 240.00  8.4481E+002
 240.50  8.4867E+002
 241.00  8.5283E+002
 241.50  8.5375E+002
 242.00  8.5148E+002
 242.50  8.4649E+002
 243.00  8.3642E+002
 243.50  8.2654E+002
 244.00  8.2491E+002
 244.50  8.3225E+002
 245.00  8.4676E+002
 245.50  8.6329E+002
 246.00  8.7448E+002
 246.50  8.8053E+002
 247.00  8.8296E+002
 247.50  8.8114E+002
 248.00  8.7631E+002
 248.50  8.7345E+002
 249.00  8.7108E+002
 249.50  8.6404E+002
 250.00  8.5932E+002
 250.50  8.6105E+002
 251.00  8.6410E+002
 251.50  8.6493E+002
 252.00  8.6704E+002
 252.50  8.6487E+002
 253.00  8.5534E+002
 253.50  8.4732E+002
 254.00  8.4163E+002
 254.50  8.3694E+002
 255.00  8.3492E+002
 255.50  8.3445E+002
 256.00  8.3666E+002
 256.50  8.4210E+002
 257.00  8.5006E+002
 257.50  8.5314E+002
 258.00  8.4787E+002
 258.50  8.3889E+002
 259.00  8.2991E+002
 259.50  8.2140E+002
 260.00  8.1778E+002
 260.50  8.2275E+002
 261.00  8.2738E+002
 261.50  8.2368E+002
 262.00  8.1843E+002
 262.50  8.1678E+002
 263.00  8.1839E+002
 263.50  8.2314E+002
 264.00  8.3156E+002
 264.50  8.4017E+002
 265.00  8.4369E+002
 265.50  8.3984E+002
 266.00  8.3541E+002
 266.50  8.3335E+002
 267.00  8.2560E+002
 267.50  8.1407E+002
 268.00  8.0311E+002
 268.50  7.9375E+002
 269.00  7.8963E+002
 269.50  7.9686E+002
 270.00  8.1303E+002
 270.50  8.3135E+002
 271.00  8.4590E+002
 271.50  8.5202E+002
 272.00  8.5069E+002
 272.50  8.4437E+002
 273.00  8.3417E+002
 273.50  8.2369E+002
 274.00  8.2141E+002
 274.50  8.2350E+002
 275.00  8.2465E+002
 275.50  8.3002E+002
 276.00  8.4524E+002
 276.50  8.6293E+002
 277.00  8.7594E+002
 277.50  8.8398E+002
 278.00  8.8841E+002
 278.50  8.8489E+002
 279.00  8.6896E+002
 279.50  8.4973E+002
 280.00  8.3454E+002
 280.50  8.2543E+002
 281.00  8.2313E+002
 281.50  8.2941E+002
 282.00  8.4111E+002
 282.50  8.5098E+002
 283.00  8.5128E+002
 283.50  8.4446E+002
 284.00  8.4065E+002
 284.50  8.4146E+002
 285.00  8.4275E+002
 285.50  8.4590E+002
 286.00  8.5175E+002
 286.50  8.5332E+002
 287.00  8.4660E+002
 287.50  8.3772E+002
 288.00  8.3289E+002
 288.50  8.3560E+002
 289.00  8.3164E+002
 289.50  8.2656E+002
 290.00  8.2540E+002
 290.50  8.1999E+002
 291.00  8.1123E+002
 291.50  8.1150E+002
 292.00  8.1593E+002
 292.50  8.2276E+002
 293.00  8.3712E+002
 293.50  8.5084E+002
 294.00  8.6047E+002
 294.50  8.6589E+002
 295.00  8.6854E+002
 295.50  8.6946E+002
 296.00  8.6875E+002
 296.50  8.6186E+002
 297.00  8.4978E+002
 297.50  8.3701E+002
 298.00  8.2799E+002
 298.50  8.2636E+002
 299.00  8.3375E+002
 299.50  8.4890E+002
 300.00  8.6643E+002
 300.50  8.8046E+002
 301.00  8.8763E+002
 301.50  8.8978E+002
 302.00  8.8681E+002
 302.50  8.7742E+002
 303.00  8.7009E+002
 303.50  8.6922E+002
 304.00  8.6615E+002
 304.50  8.5854E+002
 305.00  8.5387E+002
 305.50  8.4622E+002
 306.00  8.2910E+002
 306.50  8.2287E+002
 307.00  8.3030E+002
 307.50  8.3900E+002
 308.00  8.4141E+002
 308.50  8.4794E+002
 309.00  8.4761E+002
 309.50  8.4112E+002
 310.00  8.4060E+002
 310.50  8.4715E+002
 311.00  8.5095E+002
 311.50  8.5203E+002
 312.00  8.5332E+002
 312.50  8.4749E+002
 313.00  8.3703E+002
 313.50  8.2853E+002
 314.00  8.2508E+002
 314.50  8.2266E+002
 315.00  8.2350E+002
 315.50  8.3283E+002
 316.00  8.4609E+002
 316.50  8.5498E+002
 317.00  8.5652E+002
 317.50  8.5340E+002
 318.00  8.4566E+002
 318.50  8.3093E+002
 319.00  8.1377E+002
 319.50  8.0192E+002
 320.00  7.9955E+002
 320.50  7.9952E+002
 321.00  8.0145E+002
 321.50  8.0364E+002
 322.00  8.0500E+002
 322.50  8.0529E+002
 323.00  8.0720E+002
 323.50  8.1222E+002
 324.00  8.2100E+002
 324.50  8.3041E+002
 325.00  8.3605E+002
 325.50  8.3243E+002
 326.00  8.2768E+002
 326.50  8.2218E+002
 327.00  8.1660E+002
 327.50  8.1680E+002
 328.00  8.2580E+002
 328.50  8.3521E+002
 329.00  8.4519E+002
 329.50  8.5243E+002
 330.00  8.5625E+002
 330.50  8.5961E+002
 331.00  8.6000E+002
 331.50  8.5915E+002
 332.00  8.6431E+002
 332.50  8.6459E+002
 333.00  8.5789E+002
 333.50  8.4812E+002
 334.00  8.3851E+002
 334.50  8.2699E+002
 335.00  8.2206E+002
 335.50  8.2551E+002
 336.00  8.2872E+002
 336.50  8.2764E+002
 337.00  8.2839E+002
 337.50  8.3139E+002
 338.00  8.3021E+002
 338.50  8.2954E+002
 339.00  8.3611E+002
 339.50  8.4405E+002
 340.00  8.4885E+002
 340.50  8.5694E+002
 341.00  8.6609E+002
 341.50  8.6972E+002
 342.00  8.7235E+002
 342.50  8.7778E+002
 343.00  8.7868E+002
 343.50  8.7197E+002
 344.00  8.6574E+002
 344.50  8.6382E+002
 345.00  8.5972E+002
 345.50  8.5217E+002
 346.00  8.5018E+002
 346.50  8.5393E+002
 347.00  8.5668E+002
 347.50  8.5850E+002
 348.00  8.6347E+002
 348.50  8.6741E+002
 349.00  8.6586E+002
 349.50  8.5812E+002
 350.00  8.4562E+002
 350.50  8.3214E+002
 351.00  8.1959E+002
 351.50  8.0917E+002
 352.00  8.0516E+002
 352.50  8.0497E+002
 353.00  8.0235E+002
 353.50  8.0115E+002
 354.00  8.0633E+002
 354.50  8.0927E+002
 355.00  8.1038E+002
 355.50  8.1817E+002
 356.00  8.2580E+002
 356.50  8.2437E+002
 357.00  8.1672E+002
 357.50  8.0948E+002
 358.00  8.0628E+002
 358.50  8.0279E+002
 359.00  8.0568E+002
 359.50  8.1871E+002
 360.00  8.3268E+002
 360.50  8.3287E+002
 361.00  8.3082E+002
 361.50  8.3252E+002
 362.00  8.3375E+002
 362.50  8.3763E+002
 363.00  8.4781E+002
 363.50  8.5929E+002
 364.00  8.6159E+002
 364.50  8.5445E+002
 365.00  8.4603E+002
 365.50  8.4689E+002
 366.00  8.5346E+002
 366.50  8.5710E+002
 367.00  8.5849E+002
 367.50  8.5643E+002
 368.00  8.4951E+002
 368.50  8.4035E+002
 369.00  8.3968E+002
 369.50  8.4598E+002
 370.00  8.5025E+002
 370.50  8.5148E+002
 371.00  8.5366E+002
 371.50  8.5556E+002
 372.00  8.5400E+002
 372.50  8.4680E+002
 373.00  8.3908E+002
 373.50  8.3420E+002
 374.00  8.3396E+002
 374.50  8.3225E+002
 375.00  8.3488E+002
 375.50  8.3920E+002
 376.00  8.3934E+002
 376.50  8.3580E+002
 377.00  8.3607E+002
 377.50  8.3993E+002
 378.00  8.4770E+002
 378.50  8.6417E+002
 379.00  8.7340E+002
 379.50  8.7332E+002
 380.00  8.6923E+002
 380.50  8.6093E+002
 381.00  8.4879E+002
 381.50  8.3990E+002
 382.00  8.3605E+002
 382.50  8.3770E+002
 383.00  8.3396E+002
 383.50  8.2025E+002
 384.00  8.1039E+002
 384.50  8.1014E+002
 385.00  8.0871E+002
 385.50  8.1179E+002
 386.00  8.2432E+002
 386.50  8.3424E+002
 387.00  8.3503E+002
 387.50  8.3556E+002
 388.00  8.3451E+002
 388.50  8.2725E+002
 389.00  8.2277E+002
 389.50  8.2514E+002
 390.00  8.2902E+002
 390.50  8.2843E+002
 391.00  8.1993E+002
 391.50  8.1194E+002
 392.00  8.1383E+002
 392.50  8.1976E+002
 393.00  8.2788E+002
 393.50  8.4663E+002
 394.00  8.6177E+002
 394.50  8.6089E+002
 395.00  8.5705E+002
 395.50  8.5910E+002
 396.00  8.5538E+002
 396.50  8.5113E+002
 397.00  8.5531E+002
 397.50  8.5215E+002
 398.00  8.4404E+002
 398.50  8.4538E+002
 399.00  8.5399E+002
 399.50  8.5984E+002
 400.00  8.7077E+002
 400.50  8.8217E+002
 401.00  8.8232E+002
 401.50  8.6997E+002
 402.00  8.5653E+002
 402.50  8.4645E+002
 403.00  8.3730E+002
 403.50  8.3259E+002
 404.00  8.2899E+002
 404.50  8.2230E+002
 405.00  8.1813E+002
 405.50  8.1753E+002
 406.00  8.1972E+002
 406.50  8.2627E+002
 407.00  8.2855E+002
 407.50  8.2281E+002
 408.00  8.1778E+002
 408.50  8.1499E+002
 409.00  8.1140E+002
 409.50  8.0734E+002
 410.00  8.0200E+002
 410.50  7.9498E+002
 411.00  7.8735E+002
 411.50  7.8339E+002
 412.00  7.8707E+002
 412.50  7.9689E+002
 413.00  8.0673E+002
 413.50  8.1558E+002
 414.00  8.2730E+002
 414.50  8.3849E+002
 415.00  8.3890E+002
 415.50  8.2939E+002
 416.00  8.1740E+002
 416.50  8.0977E+002
 417.00  8.0610E+002
 417.50  8.0631E+002
 418.00  8.1476E+002
 418.50  8.2397E+002
 419.00  8.2531E+002
 419.50  8.2515E+002
 420.00  8.3223E+002
 420.50  8.4011E+002
 421.00  8.4405E+002
 421.50  8.4761E+002
 422.00  8.4752E+002
 422.50  8.4181E+002
 423.00  8.3707E+002
 423.50  8.4280E+002
 424.00  8.4414E+002
 424.50  8.4781E+002
 425.00  8.5965E+002
 425.50  8.7130E+002
 426.00  8.8212E+002
 426.50  8.9239E+002
 427.00  8.9796E+002
 427.50  8.9655E+002
 428.00  8.8655E+002
 428.50  8.6664E+002
 429.00  8.4608E+002
 429.50  8.2769E+002
 430.00  8.2086E+002
 430.50  8.2572E+002
 431.00  8.2556E+002
 431.50  8.2440E+002
 432.00  8.2713E+002
 432.50  8.2242E+002
 433.00  8.1326E+002
 433.50  8.1765E+002
 434.00  8.2890E+002
 434.50  8.3717E+002
 435.00  8.3885E+002
 435.50  8.3595E+002
 436.00  8.3332E+002
 436.50  8.3349E+002
 437.00  8.3565E+002
 437.50  8.4315E+002
 438.00  8.5081E+002
 438.50  8.4794E+002
 439.00  8.3693E+002
 439.50  8.3026E+002
 440.00  8.3068E+002
 440.50  8.3056E+002
 441.00  8.3093E+002
 441.50  8.3150E+002
 442.00  8.2333E+002
 442.50  8.1115E+002
 443.00  8.1331E+002
 443.50  8.1973E+002
 444.00  8.2310E+002
 444.50  8.2690E+002
 445.00  8.2568E+002
 445.50  8.2560E+002
 446.00  8.3726E+002
 446.50  8.4548E+002
 447.00  8.4245E+002
 447.50  8.4629E+002
 448.00  8.4797E+002
 448.50  8.3961E+002
 449.00  8.3339E+002
 449.50  8.3503E+002
 450.00  8.3810E+002
 450.50  8.3795E+002
 451.00  8.3780E+002
 451.50  8.4192E+002
 452.00  8.4223E+002
 452.50  8.2952E+002
 453.00  8.1463E+002
 453.50  8.0748E+002
 454.00  8.0761E+002
 454.50  8.1328E+002
 455.00  8.2376E+002
 455.50  8.3359E+002
 456.00  8.3762E+002
 456.50  8.3592E+002
 457.00  8.3297E+002
 457.50  8.3161E+002
 458.00  8.3589E+002
 458.50  8.4432E+002
 459.00  8.5545E+002
 459.50  8.6916E+002
 460.00  8.7775E+002
 460.50  8.8049E+002
 461.00  8.8021E+002
 461.50  8.7294E+002
 462.00  8.6140E+002
 462.50  8.5408E+002
 463.00  8.4387E+002
 463.50  8.3285E+002
 464.00  8.2837E+002
 464.50  8.2910E+002
 465.00  8.3058E+002
 465.50  8.3667E+002
 466.00  8.4449E+002
 466.50  8.4482E+002
 467.00  8.3771E+002
 467.50  8.2719E+002
 468.00  8.1279E+002
 468.50  8.0217E+002
 469.00  8.0292E+002
 469.50  8.0467E+002
 470.00  8.0661E+002
 470.50  8.1600E+002
 471.00  8.2316E+002
 471.50  8.2345E+002
 472.00  8.2453E+002
 472.50  8.2445E+002
 473.00  8.2202E+002
 473.50  8.2237E+002
 474.00  8.2120E+002
 474.50  8.2217E+002
 475.00  8.2618E+002
 475.50  8.2489E+002
 476.00  8.1703E+002
 476.50  8.1641E+002
 477.00  8.1786E+002
 477.50  8.2267E+002
 478.00  8.3276E+002
 478.50  8.4291E+002
 479.00  8.5319E+002
 479.50  8.6109E+002
 480.00  8.5956E+002
 480.50  8.5419E+002
 481.00  8.5000E+002
 481.50  8.4244E+002
 482.00  8.3212E+002
 482.50  8.2363E+002
 483.00  8.2323E+002
 483.50  8.3232E+002
 484.00  8.4550E+002
 484.50  8.5911E+002
 485.00  8.7781E+002
 485.50  8.8589E+002
 486.00  8.8117E+002
 486.50  8.7144E+002
 487.00  8.5618E+002
 487.50  8.4268E+002
 488.00  8.3630E+002
 488.50  8.3549E+002
 489.00  8.4268E+002
 489.50  8.4847E+002
 490.00  8.4478E+002
 490.50  8.3733E+002
 491.00  8.2910E+002
 491.50  8.2577E+002
 492.00  8.3036E+002
 492.50  8.3629E+002
 493.00  8.3993E+002
 493.50  8.4206E+002
 494.00  8.4275E+002
 494.50  8.4628E+002
 495.00  8.5162E+002
 495.50  8.5728E+002
 496.00  8.6147E+002
 496.50  8.5845E+002
 497.00  8.4568E+002
 497.50  8.2712E+002
 498.00  8.1023E+002
 498.50  7.9900E+002
 499.00  7.9564E+002
 499.50  7.9884E+002
 500.00  8.0885E+002
 500.50  8.1416E+002
 501.00  8.0751E+002
 501.50  8.0380E+002
 502.00  8.0586E+002
 502.50  8.0706E+002
 503.00  8.1743E+002
 503.50  8.3069E+002
 504.00  8.3370E+002
 504.50  8.3678E+002
 505.00  8.3674E+002
 505.50  8.3175E+002
 506.00  8.3371E+002
 506.50  8.3709E+002
 507.00  8.3628E+002
 507.50  8.3840E+002
 508.00  8.4136E+002
 508.50  8.4205E+002
 509.00  8.4433E+002
 509.50  8.4691E+002
 510.00  8.4910E+002
 510.50  8.4863E+002
 511.00  8.4175E+002
 511.50  8.3751E+002
 512.00  8.4322E+002
 512.50  8.5159E+002
 513.00  8.5771E+002
 513.50  8.6646E+002
 514.00  8.7185E+002
 514.50  8.6984E+002
 515.00  8.6682E+002
 515.50  8.7087E+002
 516.00  8.7407E+002
 516.50  8.7470E+002
 517.00  8.7360E+002
 517.50  8.6934E+002
 518.00  8.6416E+002
 518.50  8.5789E+002
 519.00  8.5319E+002
 519.50  8.5409E+002
 520.00  8.6006E+002
 520.50  8.6925E+002
 521.00  8.7353E+002
 521.50  8.6296E+002
 522.00  8.5305E+002
 522.50  8.4539E+002
 523.00  8.3727E+002
 523.50  8.3768E+002
 524.00  8.4299E+002
 524.50  8.3902E+002
 525.00  8.2525E+002
 525.50  8.0877E+002
 526.00  7.9709E+002
 526.50  7.9426E+002
 527.00  7.9759E+002
 527.50  8.1217E+002
 528.00  8.3761E+002
 528.50  8.5401E+002
 529.00  8.6127E+002
 529.50  8.6815E+002
 530.00  8.7174E+002
 530.50  8.6409E+002
 531.00  8.4926E+002
 531.50  8.4299E+002
 532.00  8.4820E+002
 532.50  8.5474E+002
 533.00  8.6359E+002
 533.50  8.7419E+002
 534.00  8.7475E+002
 534.50  8.6686E+002
 535.00  8.5818E+002
 535.50  8.5112E+002
 536.00  8.4940E+002
 536.50  8.4946E+002
 537.00  8.5092E+002
 537.50  8.5859E+002
 538.00  8.6888E+002
 538.50  8.6902E+002
 539.00  8.6261E+002
 539.50  8.5167E+002
 540.00  8.4073E+002
 540.50  8.3551E+002
 541.00  8.4050E+002
 541.50  8.5296E+002
 542.00  8.5880E+002
 542.50  8.5706E+002
 543.00  8.5745E+002
 543.50  8.5378E+002
 544.00  8.4752E+002
 544.50  8.4466E+002
 545.00  8.3917E+002
 545.50  8.2965E+002
 546.00  8.1924E+002
 546.50  8.1408E+002
 547.00  8.1756E+002
 547.50  8.2721E+002
 548.00  8.4108E+002
 548.50  8.5681E+002
 549.00  8.6675E+002
 549.50  8.7833E+002
 550.00  8.8419E+002
 550.50  8.7892E+002
 551.00  8.7589E+002
 551.50  8.7831E+002
 552.00  8.7388E+002
 552.50  8.6805E+002
 553.00  8.6296E+002
 553.50  8.4731E+002
 554.00  8.2822E+002
 554.50  8.1657E+002
 555.00  8.0926E+002
 555.50  8.0962E+002
 556.00  8.1248E+002
 556.50  8.1810E+002
 557.00  8.2271E+002
 557.50  8.2543E+002
 558.00  8.3389E+002
 558.50  8.4686E+002
 559.00  8.5876E+002
 559.50  8.6871E+002
 560.00  8.7583E+002
 560.50  8.7099E+002
 561.00  8.5502E+002
 561.50  8.4196E+002
 562.00  8.3780E+002
 562.50  8.4115E+002
 563.00  8.4835E+002
 563.50  8.5254E+002
 564.00  8.5784E+002
 564.50  8.6048E+002
 565.00  8.5708E+002
 565.50  8.5506E+002
 566.00  8.5656E+002
 566.50  8.5700E+002
 567.00  8.5681E+002
 567.50  8.5524E+002
 568.00  8.5597E+002
 568.50  8.5457E+002
 569.00  8.4878E+002
 569.50  8.4751E+002
 570.00  8.5176E+002
 570.50  8.5124E+002
 571.00  8.4607E+002
 571.50  8.3740E+002
 572.00  8.2878E+002
 572.50  8.2891E+002
 573.00  8.3196E+002
 573.50  8.3084E+002
 574.00  8.3520E+002
 574.50  8.3792E+002
 575.00  8.3352E+002
 575.50  8.3176E+002
 576.00  8.3668E+002
 576.50  8.4261E+002
 577.00  8.4009E+002
 577.50  8.3743E+002
 578.00  8.3872E+002
 578.50  8.2906E+002
 579.00  8.2127E+002
 579.50  8.2232E+002
 580.00  8.1961E+002
 580.50  8.2064E+002
 581.00  8.2607E+002
 581.50  8.3414E+002
 582.00  8.4533E+002
 582.50  8.5435E+002
 583.00  8.5991E+002
 583.50  8.5802E+002
 584.00  8.5201E+002
 584.50  8.5044E+002
 585.00  8.5173E+002
 585.50  8.4826E+002
 586.00  8.4578E+002
 586.50  8.4815E+002
 587.00  8.4866E+002
 587.50  8.4835E+002
 588.00  8.5413E+002
 588.50  8.6100E+002
 589.00  8.7247E+002
 589.50  8.7980E+002
 590.00  8.8417E+002
 590.50  8.8403E+002
 591.00  8.7818E+002
 591.50  8.7414E+002
 592.00  8.7814E+002
 592.50  8.8476E+002
 593.00  8.9350E+002
 593.50  8.9402E+002
 594.00  8.8438E+002
 594.50  8.7763E+002
 595.00  8.6876E+002
 595.50  8.6187E+002
 596.00  8.5868E+002
 596.50  8.5245E+002
 597.00  8.5297E+002
 597.50  8.5440E+002
 598.00  8.5153E+002
 598.50  8.6160E+002
 599.00  8.6261E+002
 599.50  8.5481E+002
 600.00  8.4856E+002
 600.50  8.4080E+002
 601.00  8.3423E+002
 601.50  8.3414E+002
 602.00  8.3880E+002
 602.50  8.4139E+002
 603.00  8.4007E+002
 603.50  8.3446E+002
 604.00  8.2112E+002
 604.50  8.1130E+002
 605.00  8.0969E+002
 605.50  8.1127E+002
 606.00  8.2060E+002
 606.50  8.3490E+002
 607.00  8.4649E+002
 607.50  8.6026E+002
 608.00  8.6901E+002
 608.50  8.6305E+002
 609.00  8.5578E+002
 609.50  8.5194E+002
 610.00  8.4371E+002
 610.50  8.3707E+002
 611.00  8.3418E+002
 611.50  8.3161E+002
 612.00  8.3102E+002
 612.50  8.3234E+002
 613.00  8.3639E+002
 613.50  8.3870E+002
 614.00  8.3952E+002
 614.50  8.4293E+002
 615.00  8.4764E+002
 615.50  8.5229E+002
 616.00  8.5592E+002
 616.50  8.6243E+002
 617.00  8.7529E+002
 617.50  8.7914E+002
 618.00  8.7316E+002
 618.50  8.6562E+002
 619.00  8.5570E+002
 619.50  8.4895E+002
 620.00  8.4995E+002
 620.50  8.5633E+002
 621.00  8.5759E+002
 621.50  8.5492E+002
 622.00  8.5530E+002
 622.50  8.5974E+002
 623.00  8.6062E+002
 623.50  8.6315E+002
 624.00  8.6963E+002
 624.50  8.7760E+002
 625.00  8.8718E+002
 625.50  8.9816E+002
 626.00  9.0598E+002
 626.50  9.0974E+002
 627.00  9.0804E+002
 627.50  9.0400E+002
 628.00  9.0032E+002
 628.50  8.9333E+002
 629.00  8.8285E+002
 629.50  8.7057E+002
 630.00  8.5391E+002
 630.50  8.4549E+002
 631.00  8.4437E+002
 631.50  8.3915E+002
 632.00  8.3139E+002
 632.50  8.3005E+002
 633.00  8.3090E+002
 633.50  8.3760E+002
 634.00  8.5863E+002
 634.50  8.6915E+002
 635.00  8.7005E+002
 635.50  8.6472E+002
 636.00  8.5236E+002
 636.50  8.4680E+002
 637.00  8.3869E+002
 637.50  8.2400E+002
 638.00  8.2149E+002
 638.50  8.1889E+002
 639.00  8.1878E+002
 639.50  8.2325E+002
 640.00  8.2668E+002
 640.50  8.2801E+002
 641.00  8.2892E+002
 641.50  8.2926E+002
 642.00  8.3257E+002
 642.50  8.3907E+002
 643.00  8.4188E+002
 643.50  8.4449E+002
 644.00  8.5103E+002
 644.50  8.5079E+002
 645.00  8.4554E+002
 645.50  8.4742E+002
 646.00  8.5325E+002
 646.50  8.5115E+002
 647.00  8.5319E+002
 647.50  8.5980E+002
 648.00  8.6362E+002
 648.50  8.7518E+002
 649.00  8.9619E+002
 649.50  9.0901E+002
 650.00  8.9927E+002
 650.50  8.7524E+002
 651.00  8.5326E+002
 651.50  8.3445E+002
 652.00  8.3380E+002
 652.50  8.4931E+002
 653.00  8.5341E+002
 653.50  8.5092E+002
 654.00  8.5173E+002
 654.50  8.4967E+002
 655.00  8.4755E+002
 655.50  8.4685E+002
 656.00  8.4079E+002
 656.50  8.2708E+002
 657.00  8.2204E+002
 657.50  8.2701E+002
 658.00  8.3603E+002
 658.50  8.5199E+002
 659.00  8.6337E+002
 659.50  8.6384E+002
 660.00  8.6221E+002
 660.50  8.5288E+002
 661.00  8.4858E+002
 661.50  8.4770E+002
 662.00  8.4001E+002
 662.50  8.3113E+002
 663.00  8.2247E+002
 663.50  8.1513E+002
 664.00  8.2460E+002
 664.50  8.4539E+002
 665.00  8.6148E+002
 665.50  8.7012E+002
 666.00  8.7358E+002
 666.50  8.6404E+002
 667.00  8.5534E+002
 667.50  8.5214E+002
 668.00  8.3933E+002
 668.50  8.3243E+002
 669.00  8.3198E+002
 669.50  8.3321E+002
 670.00  8.4536E+002
 670.50  8.5836E+002
 671.00  8.5286E+002
 671.50  8.4232E+002
 672.00  8.3210E+002
 672.50  8.2633E+002
 673.00  8.3082E+002
 673.50  8.3998E+002
 674.00  8.5155E+002
 674.50  8.5645E+002
 675.00  8.5681E+002
 675.50  8.6961E+002
 676.00  8.8518E+002
 676.50  8.8803E+002
 677.00  8.9167E+002
 677.50  8.8608E+002
 678.00  8.7032E+002
 678.50  8.6408E+002
 679.00  8.5768E+002
 679.50  8.5387E+002
 680.00  8.5267E+002
 680.50  8.4337E+002
 681.00  8.3815E+002
 681.50  8.4138E+002
 682.00  8.4574E+002
 682.50  8.4915E+002
 683.00  8.4606E+002
 683.50  8.4101E+002
 684.00  8.3664E+002
 684.50  8.2661E+002
 685.00  8.2652E+002
 685.50  8.3030E+002
 686.00  8.2661E+002
 686.50  8.2380E+002
 687.00  8.2301E+002
 687.50  8.2856E+002
 688.00  8.3378E+002
 688.50  8.3308E+002
 689.00  8.3649E+002
 689.50  8.3964E+002
 690.00  8.4000E+002
 690.50  8.4602E+002
 691.00  8.4864E+002
 691.50  8.3998E+002
 692.00  8.3169E+002
 692.50  8.2557E+002
 693.00  8.2098E+002
 693.50  8.2709E+002
 694.00  8.3829E+002
 694.50  8.5053E+002
 695.00  8.6602E+002
 695.50  8.7756E+002
 696.00  8.8480E+002
 696.50  8.8765E+002
 697.00  8.7802E+002
 697.50  8.6683E+002
 698.00  8.5491E+002
 698.50  8.4302E+002
 699.00  8.3883E+002
 699.50  8.3940E+002
 700.00  8.4455E+002
 700.50  8.5344E+002
 701.00  8.6057E+002
 701.50  8.6914E+002
 702.00  8.7431E+002
 702.50  8.7341E+002
 703.00  8.7677E+002
 703.50  8.7406E+002
 704.00  8.6555E+002
 704.50  8.5600E+002
 705.00  8.4221E+002
 705.50  8.3821E+002
 706.00  8.3780E+002
 706.50  8.3880E+002
 707.00  8.4300E+002
 707.50  8.3729E+002
 708.00  8.3171E+002
 708.50  8.3542E+002
 709.00  8.3916E+002
 709.50  8.4944E+002
 710.00  8.5708E+002
 710.50  8.5401E+002
 711.00  8.4490E+002
 711.50  8.3625E+002
 712.00  8.3150E+002
 712.50  8.2709E+002
 713.00  8.2949E+002
 713.50  8.3603E+002
 714.00  8.3995E+002
 714.50  8.4801E+002
 715.00  8.5815E+002
 715.50  8.5912E+002
 716.00  8.6037E+002
 716.50  8.6133E+002
 717.00  8.5682E+002
 717.50  8.5319E+002
 718.00  8.5028E+002
 718.50  8.5270E+002
 719.00  8.6087E+002
 719.50  8.6995E+002
 720.00  8.7474E+002
 720.50  8.7014E+002
 721.00  8.6761E+002
 721.50  8.6857E+002
 722.00  8.7427E+002
 722.50  8.7562E+002
 723.00  8.7085E+002
 723.50  8.6346E+002
 724.00  8.6152E+002
 724.50  8.7356E+002
 725.00  8.8999E+002
 725.50  9.0151E+002
 726.00  8.9988E+002
 726.50  8.8672E+002
 727.00  8.7425E+002
 727.50  8.6271E+002
 728.00  8.5315E+002
 728.50  8.5694E+002
 729.00  8.6291E+002
 729.50  8.6320E+002
 730.00  8.6473E+002
 730.50  8.6346E+002
 731.00  8.5815E+002
 731.50  8.4911E+002
 732.00  8.3993E+002
 732.50  8.3002E+002
 733.00  8.1805E+002
 733.50  8.1634E+002
 734.00  8.2791E+002
 734.50  8.4031E+002
 735.00  8.5049E+002
 735.50  8.5545E+002
 736.00  8.5235E+002
 736.50  8.4414E+002
 737.00  8.3684E+002
 737.50  8.3679E+002
 738.00  8.3981E+002
 738.50  8.4254E+002
 739.00  8.4885E+002
 739.50  8.5195E+002
 740.00  8.4869E+002
 740.50  8.4678E+002
 741.00  8.3655E+002
 741.50  8.2254E+002
 742.00  8.2430E+002
 742.50  8.3741E+002
 743.00  8.5423E+002
 743.50  8.6163E+002
 744.00  8.5902E+002
 744.50  8.5298E+002
 745.00  8.4594E+002
 745.50  8.4894E+002
 746.00  8.5707E+002
 746.50  8.6666E+002
 747.00  8.7533E+002
 747.50  8.8395E+002
 748.00  8.8940E+002
 748.50  8.8733E+002
 749.00  8.8696E+002
 749.50  8.8751E+002
 750.00  8.8936E+002
 750.50  8.8934E+002
 751.00  8.8355E+002
 751.50  8.8038E+002
 752.00  8.7265E+002
 752.50  8.6577E+002
 753.00  8.6301E+002
 753.50  8.6019E+002
 754.00  8.5509E+002
 754.50  8.6041E+002
 755.00  8.6672E+002
 755.50  8.7085E+002
 756.00  8.8300E+002
 756.50  8.8391E+002
 757.00  8.7380E+002
 757.50  8.6801E+002
 758.00  8.5771E+002
 758.50  8.4790E+002
 759.00  8.4765E+002
 759.50  8.5210E+002
 760.00  8.5277E+002
 760.50  8.6156E+002
 761.00  8.7108E+002
 761.50  8.7524E+002
 762.00  8.8435E+002
 762.50  8.9116E+002
 763.00  8.9090E+002
 763.50  8.8294E+002
 764.00  8.7334E+002
 764.50  8.7064E+002
 765.00  8.7160E+002
 765.50  8.7681E+002
 766.00  8.8642E+002
 766.50  8.9435E+002
 767.00  9.0057E+002
 767.50  9.0267E+002
 768.00  8.9879E+002
 768.50  8.8408E+002
 769.00  8.7279E+002
 769.50  8.7594E+002
 770.00  8.7860E+002
 770.50  8.8058E+002
 771.00  8.8027E+002
 771.50  8.7094E+002
 772.00  8.6820E+002
 772.50  8.6637E+002
 773.00  8.6059E+002
 773.50  8.5499E+002
 774.00  8.4804E+002
 774.50  8.4972E+002
 775.00  8.6446E+002
 775.50  8.7811E+002
 776.00  8.8130E+002
 776.50  8.8108E+002
 777.00  8.7160E+002
 777.50  8.6545E+002
 778.00  8.7702E+002
 778.50  8.8144E+002
 779.00  8.8836E+002
 779.50  9.0043E+002
 780.00  8.9992E+002
 780.50  8.9585E+002
 781.00  8.8966E+002
 781.50  8.7374E+002
 782.00  8.6475E+002
 782.50  8.6512E+002
 783.00  8.6345E+002
 783.50  8.6412E+002
 784.00  8.5436E+002
 784.50  8.3659E+002
 785.00  8.2484E+002
 785.50  8.1729E+002
 786.00  8.2085E+002
 786.50  8.3256E+002
 787.00  8.4786E+002
 787.50  8.6285E+002
 788.00  8.7407E+002
 788.50  8.8178E+002
 789.00  8.8241E+002
 789.50  8.8127E+002
 790.00  8.8058E+002
 790.50  8.7511E+002
 791.00  8.7557E+002
 791.50  8.8191E+002
 792.00  8.8687E+002
 792.50  9.0669E+002
 793.00  9.4087E+002
 793.50  9.9839E+002
 794.00  1.1071E+003
 794.50  1.2735E+003
 795.00  1.4972E+003
 795.50  1.7763E+003
 796.00  2.1006E+003
 796.50  2.4496E+003
 797.00  2.8084E+003
 797.50  3.1456E+003
 798.00  3.4358E+003
 798.50  3.6767E+003
 799.00  3.8505E+003
 799.50  3.9822E+003
 800.00  4.0833E+003
 800.50  4.1310E+003
 801.00  4.1471E+003
 801.50  4.1173E+003
 802.00  4.0534E+003
 802.50  3.9875E+003
 803.00  3.8993E+003
 803.50  3.7734E+003
 804.00  3.5795E+003
 804.50  3.2987E+003
 805.00  2.9530E+003
 805.50  2.5825E+003
 806.00  2.2072E+003
 806.50  1.8473E+003
 807.00  1.5266E+003
 807.50  1.2612E+003
 808.00  1.0759E+003
 808.50  9.6390E+002
 809.00  8.9948E+002
 809.50  8.7048E+002
 810.00  8.6362E+002
 810.50  8.6414E+002
 811.00  8.7790E+002
 811.50  8.9250E+002
 812.00  8.9599E+002
 812.50  8.9082E+002
 813.00  8.8248E+002
 813.50  8.7179E+002
 814.00  8.6112E+002
 814.50  8.5840E+002
 815.00  8.5706E+002
 815.50  8.5586E+002
 816.00  8.6141E+002
 816.50  8.7106E+002
 817.00  8.8644E+002
 817.50  8.9870E+002
 818.00  9.0416E+002
 818.50  9.0020E+002
 819.00  8.9308E+002
 819.50  8.8930E+002
 820.00  8.9044E+002
 820.50  8.9263E+002
 821.00  8.9493E+002
 821.50  9.0638E+002
 822.00  9.1889E+002
 822.50  9.3233E+002
 823.00  9.3905E+002
 823.50  9.2875E+002
 824.00  9.1109E+002
 824.50  8.9594E+002
 825.00  8.8477E+002
 825.50  8.8526E+002
 826.00  8.9272E+002
 826.50  8.8980E+002
 827.00  8.8497E+002
 827.50  8.7212E+002
 828.00  8.5274E+002
 828.50  8.3893E+002
 829.00  8.2282E+002
 829.50  8.1885E+002
 830.00  8.2176E+002
 830.50  8.2612E+002
 831.00  8.3812E+002
 831.50  8.4638E+002
 832.00  8.5737E+002
 832.50  8.6832E+002
 833.00  8.7422E+002
 833.50  8.6788E+002
 834.00  8.5747E+002
 834.50  8.5112E+002
 835.00  8.5143E+002
 835.50  8.5805E+002
 836.00  8.6639E+002
 836.50  8.7997E+002
 837.00  8.9249E+002
 837.50  9.0582E+002
 838.00  9.0624E+002
 838.50  8.9388E+002
 839.00  8.8311E+002
 839.50  8.6836E+002
 840.00  8.5954E+002
 840.50  8.5864E+002
 841.00  8.4936E+002
 841.50  8.5058E+002
 842.00  8.5047E+002
 842.50  8.5034E+002
 843.00  8.6325E+002
 843.50  8.7279E+002
 844.00  8.7920E+002
 844.50  8.8391E+002
 845.00  8.7753E+002
 845.50  8.6468E+002
 846.00  8.5980E+002
 846.50  8.6117E+002
 847.00  8.6404E+002
 847.50  8.7301E+002
 848.00  8.8359E+002
 848.50  8.8080E+002
 849.00  8.7154E+002
 849.50  8.5683E+002
 850.00  8.3891E+002
 850.50  8.3760E+002
 851.00  8.4523E+002
 851.50  8.5455E+002
 852.00  8.6050E+002
 852.50  8.5541E+002
 853.00  8.5331E+002
 853.50  8.5658E+002
 854.00  8.6082E+002
 854.50  8.6395E+002
 855.00  8.6335E+002
 855.50  8.5242E+002
 856.00  8.3687E+002
 856.50  8.2174E+002
 857.00  7.9834E+002
 857.50  7.8613E+002
 858.00  7.8822E+002
 858.50  8.0046E+002
 859.00  8.2441E+002
 859.50  8.3834E+002
 860.00  8.3471E+002
 860.50  8.2087E+002
 861.00  8.0128E+002
 861.50  7.9370E+002
 862.00  7.9992E+002
 862.50  8.1410E+002
 863.00  8.3429E+002
 863.50  8.5480E+002
 864.00  8.7867E+002
 864.50  8.9448E+002
 865.00  9.0185E+002
 865.50  8.9426E+002
 866.00  8.6946E+002
 866.50  8.4862E+002
 867.00  8.3489E+002
 867.50  8.3306E+002
 868.00  8.4009E+002
 868.50  8.5250E+002
 869.00  8.7194E+002
 869.50  8.7484E+002
 870.00  8.7945E+002
 870.50  8.7879E+002
 871.00  8.6437E+002
 871.50  8.6168E+002
 872.00  8.5832E+002
 872.50  8.5166E+002
 873.00  8.4470E+002
 873.50  8.3806E+002
 874.00  8.3611E+002
 874.50  8.3505E+002
 875.00  8.3767E+002
 875.50  8.4488E+002
 876.00  8.4342E+002
 876.50  8.4481E+002
 877.00  8.4645E+002
 877.50  8.4337E+002
 878.00  8.3799E+002
 878.50  8.3671E+002
 879.00  8.3720E+002
 879.50  8.4329E+002
 880.00  8.3794E+002
 880.50  8.2213E+002
 881.00  8.1158E+002
 881.50  8.0680E+002
 882.00  8.1402E+002
 882.50  8.2947E+002
 883.00  8.3479E+002
 883.50  8.3635E+002
 884.00  8.3966E+002
 884.50  8.3956E+002
 885.00  8.3634E+002
 885.50  8.3891E+002
 886.00  8.4982E+002
 886.50  8.6141E+002
 887.00  8.7284E+002
 887.50  8.7889E+002
 888.00  8.7903E+002
 888.50  8.7480E+002
 889.00  8.7056E+002
 889.50  8.6158E+002
 890.00  8.4859E+002
 890.50  8.5336E+002
 891.00  8.6146E+002
 891.50  8.6761E+002
 892.00  8.7759E+002
 892.50  8.7472E+002
 893.00  8.6593E+002
 893.50  8.6613E+002
 894.00  8.7405E+002
 894.50  8.7592E+002
 895.00  8.7768E+002
 895.50  8.7294E+002
 896.00  8.5917E+002
 896.50  8.5597E+002
 897.00  8.5412E+002
 897.50  8.4641E+002
 898.00  8.4949E+002
 898.50  8.6148E+002
 899.00  8.8485E+002
 899.50  8.9582E+002
 900.00  8.9125E+002
 900.50  8.7217E+002
 901.00  8.5052E+002
 901.50  8.3385E+002
 902.00  8.3045E+002
 902.50  8.2483E+002
 903.00  8.1885E+002
 903.50  8.2247E+002
 904.00  8.1613E+002
 904.50  8.2066E+002
 905.00  8.3238E+002
 905.50  8.4102E+002
 906.00  8.4667E+002
 906.50  8.4643E+002
 907.00  8.5041E+002
 907.50  8.5606E+002
 908.00  8.6214E+002
 908.50  8.5718E+002
 909.00  8.5533E+002
 909.50  8.6042E+002
 910.00  8.6684E+002
 910.50  8.7541E+002
 911.00  8.7089E+002
 911.50  8.6139E+002
 912.00  8.5936E+002
 912.50  8.6963E+002
 913.00  8.7683E+002
 913.50  8.7500E+002
 914.00  8.4948E+002
 914.50  8.2196E+002
 915.00  8.2388E+002
 915.50  8.4345E+002
 916.00  8.7302E+002
 916.50  8.8812E+002
 917.00  8.7645E+002
 917.50  8.6313E+002
 918.00  8.5031E+002
 918.50  8.4828E+002
 919.00  8.5706E+002
 919.50  8.6127E+002
 920.00  8.6533E+002
 920.50  8.6412E+002
 921.00  8.4883E+002
 921.50  8.4628E+002
 922.00  8.4588E+002
 922.50  8.5564E+002
 923.00  8.7225E+002
 923.50  8.7665E+002
 924.00  8.6942E+002
 924.50  8.5292E+002
 925.00  8.3343E+002
 925.50  8.1521E+002
 926.00  7.9259E+002
 926.50  7.8190E+002
 927.00  7.9194E+002
 927.50  8.1642E+002
 928.00  8.4643E+002
 928.50  8.5425E+002
 929.00  8.4317E+002
 929.50  8.2671E+002
 930.00  8.1445E+002
 930.50  8.1863E+002
 931.00  8.2885E+002
 931.50  8.4062E+002
 932.00  8.4737E+002
 932.50  8.4548E+002
 933.00  8.2819E+002
 933.50  8.1842E+002
 934.00  8.1177E+002
 934.50  8.2145E+002
 935.00  8.4293E+002
 935.50  8.5958E+002
 936.00  8.6427E+002
 936.50  8.6461E+002
 937.00  8.5123E+002
 937.50  8.4128E+002
 938.00  8.2888E+002
 938.50  8.1391E+002
 939.00  8.0915E+002
 939.50  8.0423E+002
 940.00  8.0825E+002
 940.50  8.1820E+002
 941.00  8.2427E+002
 941.50  8.3452E+002
 942.00  8.4919E+002
 942.50  8.5753E+002
 943.00  8.6044E+002
 943.50  8.5999E+002
 944.00  8.5316E+002
 944.50  8.5408E+002
 945.00  8.5775E+002
 945.50  8.5739E+002
 946.00  8.4978E+002
 946.50  8.3814E+002
 947.00  8.2855E+002
 947.50  8.1947E+002
 948.00  8.1463E+002
 948.50  8.1216E+002
 949.00  8.1801E+002
 949.50  8.2487E+002
 950.00  8.2351E+002
 950.50  8.2257E+002
 951.00  8.1636E+002
 951.50  8.1973E+002
 952.00  8.3259E+002
 952.50  8.3427E+002
 953.00  8.3247E+002
 953.50  8.4009E+002
 954.00  8.4671E+002
 954.50  8.5349E+002
 955.00  8.5647E+002
 955.50  8.4471E+002
 956.00  8.3385E+002
 956.50  8.3850E+002
 957.00  8.4660E+002
 957.50  8.6185E+002
 958.00  8.7349E+002
 958.50  8.6794E+002
 959.00  8.6238E+002
 959.50  8.5982E+002
 960.00  8.5558E+002
 960.50  8.5554E+002
 961.00  8.5202E+002
 961.50  8.5012E+002
 962.00  8.6578E+002
 962.50  8.7783E+002
 963.00  8.8159E+002
 963.50  8.7108E+002
 964.00  8.5803E+002
 964.50  8.4308E+002
 965.00  8.3754E+002
 965.50  8.4063E+002
 966.00  8.4795E+002
 966.50  8.5194E+002
 967.00  8.4927E+002
 967.50  8.3676E+002
 968.00  8.2510E+002
 968.50  8.2189E+002
 969.00  8.2234E+002
 969.50  8.2946E+002
 970.00  8.3756E+002
 970.50  8.4206E+002
 971.00  8.4628E+002
 971.50  8.5689E+002
 972.00  8.5716E+002
 972.50  8.5216E+002
 973.00  8.4862E+002
 973.50  8.3428E+002
 974.00  8.3181E+002
 974.50  8.3794E+002
 975.00  8.3963E+002
 975.50  8.5549E+002
 976.00  8.7646E+002
 976.50  8.8728E+002
 977.00  9.0245E+002
 977.50  8.9800E+002
 978.00  8.8878E+002
 978.50  8.9163E+002
 979.00  8.9030E+002
 979.50  9.0281E+002
 980.00  9.0375E+002
 980.50  8.9506E+002
 981.00  8.8690E+002
 981.50  8.7606E+002
 982.00  8.7207E+002
 982.50  8.7194E+002
 983.00  8.6809E+002
 983.50  8.6858E+002
 984.00  8.6621E+002
 984.50  8.6142E+002
 985.00  8.5661E+002
 985.50  8.5140E+002
 986.00  8.5192E+002
 986.50  8.4868E+002
 987.00  8.4546E+002
 987.50  8.5105E+002
 988.00  8.4929E+002
 988.50  8.4572E+002
 989.00  8.3178E+002
 989.50  8.0371E+002
 990.00  7.8415E+002
 990.50  7.7857E+002
 991.00  7.9488E+002
 991.50  8.1498E+002
 992.00  8.2063E+002
 992.50  8.1117E+002
 993.00  8.0013E+002
 993.50  7.9180E+002
 994.00  7.9973E+002
 994.50  8.1146E+002
 995.00  8.3013E+002
 995.50  8.4752E+002
 996.00  8.4876E+002
 996.50  8.4722E+002
 997.00  8.5379E+002
 997.50  8.6517E+002
 998.00  8.7180E+002
 998.50  8.7077E+002
 999.00  8.6621E+002
 999.50  8.7238E+002
1000.00  8.8221E+002
1000.50  8.9232E+002
1001.00  9.0120E+002
1001.50  9.0536E+002
1002.00  9.0545E+002
1002.50  8.9214E+002
1003.00  8.7453E+002
1003.50  8.5701E+002
1004.00  8.5282E+002
1004.50  8.4547E+002
1005.00  8.3805E+002
1005.50  8.2912E+002
1006.00  8.1792E+002
1006.50  8.2413E+002
1007.00  8.2278E+002
1007.50  8.2560E+002
1008.00  8.1630E+002
1008.50  8.0552E+002
1009.00  7.9512E+002
1009.50  7.9320E+002
1010.00  7.9862E+002
1010.50  8.0956E+002
1011.00  8.2290E+002
1011.50  8.2345E+002
1012.00  8.1803E+002
1012.50  8.1130E+002
1013.00  8.0430E+002
1013.50  8.0597E+002
1014.00  8.1261E+002
1014.50  8.2354E+002
1015.00  8.3943E+002
1015.50  8.3687E+002
1016.00  8.3191E+002
1016.50  8.2876E+002
1017.00  8.2651E+002
1017.50  8.4277E+002
1018.00  8.5128E+002
1018.50  8.5930E+002
1019.00  8.5545E+002
1019.50  8.5523E+002
1020.00  8.6317E+002
1020.50  8.6829E+002
1021.00  8.6291E+002
1021.50  8.5663E+002
1022.00  8.5820E+002
1022.50  8.6095E+002
1023.00  8.5233E+002
1023.50  8.3923E+002
1024.00  8.3535E+002
1024.50  8.3744E+002
1025.00  8.3999E+002
1025.50  8.3755E+002
1026.00  8.3559E+002
1026.50  8.3216E+002
1027.00  8.3008E+002
1027.50  8.3839E+002
1028.00  8.3880E+002
1028.50  8.4322E+002
1029.00  8.3557E+002
1029.50  8.2308E+002
1030.00  8.2374E+002
1030.50  8.2179E+002
1031.00  8.2427E+002
1031.50  8.2919E+002
1032.00  8.3345E+002
1032.50  8.4621E+002
1033.00  8.5765E+002
1033.50  8.5661E+002
1034.00  8.4810E+002
1034.50  8.4234E+002
1035.00  8.4365E+002
1035.50  8.4768E+002
1036.00  8.4621E+002
1036.50  8.3705E+002
1037.00  8.3508E+002
1037.50  8.4108E+002
1038.00  8.5367E+002
1038.50  8.6257E+002
1039.00  8.6170E+002
1039.50  8.5115E+002
1040.00  8.5017E+002
1040.50  8.4391E+002
1041.00  8.4978E+002
1041.50  8.5637E+002
1042.00  8.6666E+002
1042.50  8.7413E+002
1043.00  8.7471E+002
1043.50  8.7172E+002
1044.00  8.5976E+002
1044.50  8.4483E+002
1045.00  8.2397E+002
1045.50  8.1879E+002
1046.00  8.1959E+002
1046.50  8.2435E+002
1047.00  8.3332E+002
1047.50  8.3548E+002
1048.00  8.4386E+002
1048.50  8.3942E+002
1049.00  8.3057E+002
1049.50  8.2398E+002
1050.00  8.1948E+002
1050.50  8.1706E+002
1051.00  8.2180E+002
1051.50  8.1692E+002
1052.00  8.2474E+002
1052.50  8.2760E+002
1053.00  8.3069E+002
1053.50  8.3380E+002
1054.00  8.3296E+002
1054.50  8.4987E+002
1055.00  8.5396E+002
1055.50  8.5364E+002
1056.00  8.4810E+002
1056.50  8.4655E+002
1057.00  8.5509E+002
1057.50  8.5229E+002
1058.00  8.4067E+002
1058.50  8.3969E+002
1059.00  8.5677E+002
1059.50  8.7187E+002
1060.00  8.6586E+002
1060.50  8.4237E+002
1061.00  8.3687E+002
1061.50  8.3966E+002
1062.00  8.6057E+002
1062.50  8.7378E+002
1063.00  8.7332E+002
1063.50  8.6776E+002
1064.00  8.5719E+002
1064.50  8.5065E+002
1065.00  8.5342E+002
1065.50  8.4984E+002
1066.00  8.4063E+002
1066.50  8.3178E+002
1067.00  8.3065E+002
1067.50  8.3725E+002
1068.00  8.4243E+002
1068.50  8.5137E+002
1069.00  8.4565E+002
1069.50  8.4993E+002
1070.00  8.4459E+002
1070.50  8.4288E+002
1071.00  8.3647E+002
1071.50  8.3044E+002
1072.00  8.3003E+002
1072.50  6.9066E+002
